"Time (s)","Acceleration x (m/s^2)","Acceleration y (m/s^2)","Acceleration z (m/s^2)","Absolute acceleration (m/s^2)"
2.569563700E-2,-1.471236944E0,3.487154722E0,9.943717957E0,1.063965756E1
2.818443900E-2,-1.394622445E0,3.444059134E0,1.006821632E1,1.073198467E1
3.067730400E-2,-1.298854470E0,3.357867956E0,1.016877270E1,1.078731840E1
3.317490800E-2,-1.246181965E0,3.333925962E0,1.025017643E1,1.085053679E1
3.567766800E-2,-1.193509579E0,3.281253338E0,1.027890682E1,1.085573646E1
3.818579300E-2,-1.164779186E0,3.247734547E0,1.026933002E1,1.083344956E1
4.069923100E-2,-1.131260276E0,3.219004154E0,1.022623444E1,1.078042709E1
4.321777300E-2,-1.073799491E0,3.199850559E0,1.016877270E1,1.071429079E1
4.574095000E-2,-1.049857497E0,3.151966572E0,1.010173512E1,1.063400895E1
4.826818900E-2,-1.035492182E0,3.113659382E0,1.004906273E1,1.057122417E1
5.079876200E-2,-1.035492182E0,3.094505787E0,1.000117874E1,1.052006589E1
5.333178300E-2,-1.030703783E0,3.075352192E0,9.924564362E0,1.044112634E1
5.586636600E-2,-1.064222693E0,3.099294186E0,9.809642792E0,1.034249903E1
5.840157500E-2,-1.140837073E0,3.094505787E0,9.685144424E0,1.023129991E1
6.093011600E-2,-1.231816769E0,3.084928989E0,9.493608475E0,1.005797004E1
6.344318900E-2,-1.294066072E0,3.080140591E0,9.292495728E0,9.874834171E0
6.595615800E-2,-1.332373261E0,3.089717388E0,9.163208008E0,9.761452404E0
6.846876200E-2,-1.351526856E0,3.080140591E0,9.081805229E0,9.684682603E0
7.098136600E-2,-1.389834046E0,3.099294186E0,9.057863235E0,9.673786721E0
7.349397000E-2,-1.432929754E0,3.099294186E0,9.053074837E0,9.675591772E0
7.600657500E-2,-1.466448545E0,3.104082584E0,9.043498039E0,9.673192690E0
7.851917900E-2,-1.504755735E0,3.099294186E0,9.014767647E0,9.650696866E0
8.103178300E-2,-1.538274646E0,3.080140591E0,9.000402451E0,9.636430834E0
8.354423100E-2,-1.562216640E0,3.065775394E0,8.990825653E0,9.626756750E0
8.605652300E-2,-1.567005038E0,3.065775394E0,8.962095261E0,9.600710131E0
8.856881400E-2,-1.562216640E0,3.060986757E0,8.914211273E0,9.553707311E0
9.108110600E-2,-1.552639842E0,3.046621561E0,8.875904083E0,9.511796187E0
9.359339800E-2,-1.528697729E0,3.041833162E0,8.794501305E0,9.430425172E0
9.610568900E-2,-1.499967337E0,3.027467966E0,8.727463722E0,9.358637044E0
9.861798100E-2,-1.495178938E0,3.017891169E0,8.641272545E0,9.274417413E0
1.011303250E-1,-1.471236944E0,3.013102770E0,8.535927773E0,9.170899050E0
1.036427200E-1,-1.466448545E0,3.013102770E0,8.444948196E0,9.085505472E0
1.061552200E-1,-1.432929754E0,3.032256365E0,8.377910614E0,9.024259116E0
1.086678250E-1,-1.423352957E0,3.017891169E0,8.334815025E0,8.977902999E0
1.111805330E-1,-1.452083349E0,3.008314371E0,8.291719437E0,8.939301574E0
1.136933980E-1,-1.452083349E0,3.008314371E0,8.243835449E0,8.894904402E0
1.162064180E-1,-1.490390539E0,3.013102770E0,8.210315704E0,8.871828235E0
1.187195950E-1,-1.514332533E0,3.032256365E0,8.186373711E0,8.860276306E0
1.212329290E-1,-1.519120932E0,3.065775394E0,8.191162109E0,8.877040266E0
1.237463660E-1,-1.533486247E0,3.128024578E0,8.243835449E0,8.949689422E0
1.262599080E-1,-1.509544134E0,3.151966572E0,8.377910614E0,9.077609984E0
1.287735540E-1,-1.456871748E0,3.156754971E0,8.550292969E0,9.230118476E0
1.312872520E-1,-1.499967337E0,3.171120167E0,8.540716171E0,9.233078460E0
1.338010020E-1,-1.528697729E0,3.190273762E0,8.492832184E0,9.200160973E0
1.363147520E-1,-1.523909330E0,3.214215755E0,8.488043785E0,9.203280386E0
1.388285020E-1,-1.490390539E0,3.233369350E0,8.540716171E0,9.253095376E0
1.413417310E-1,-1.471236944E0,3.228580952E0,8.579023361E0,9.283744661E0
1.438548040E-1,-1.432929754E0,3.233369350E0,8.631695747E0,9.328136819E0
1.463669910E-1,-1.413776159E0,3.238157749E0,8.698733330E0,9.388950430E0
1.488790750E-1,-1.389834046E0,3.252522945E0,8.765770912E0,9.452475013E0
1.513911580E-1,-1.375468850E0,3.242946148E0,8.828020096E0,9.504869967E0
1.539032410E-1,-1.332373261E0,3.238157749E0,8.866327286E0,9.532714391E0
1.564153250E-1,-1.298854470E0,3.233369350E0,8.899846077E0,9.557665012E0
1.589274080E-1,-1.265335560E0,3.238157749E0,8.895057678E0,9.550329355E0
1.614394910E-1,-1.222239971E0,3.242946148E0,8.918999672E0,9.568653271E0
1.639516270E-1,-1.188721180E0,3.228580952E0,8.899846077E0,9.541700750E0
1.664638140E-1,-1.159990668E0,3.238157749E0,8.871115685E0,9.514617042E0
1.689760540E-1,-1.116895080E0,3.219004154E0,8.856750488E0,9.489545383E0
1.714883980E-1,-1.083376288E0,3.228580952E0,8.866327286E0,9.497852319E0
1.740008980E-1,-1.092953086E0,3.247734547E0,8.909422874E0,9.545687094E0
1.765135540E-1,-1.107318282E0,3.262099743E0,8.904634476E0,9.547772707E0
1.790263660E-1,-1.116895080E0,3.290830135E0,8.938153267E0,9.589974005E0
1.815393350E-1,-1.159990668E0,3.300406933E0,8.971672058E0,9.629598319E0
1.840524600E-1,-1.203086376E0,3.319560766E0,8.962095261E0,9.632551685E0
1.865656890E-1,-1.279700756E0,3.333925962E0,8.990825653E0,9.674070615E0
1.890790230E-1,-1.318008065E0,3.367444754E0,9.053074837E0,9.748589305E0
1.915924600E-1,-1.332373261E0,3.391386747E0,9.100958824E0,9.803273642E0
1.941059500E-1,-1.341950059E0,3.410540342E0,9.100958824E0,9.811221479E0
1.966194390E-1,-1.341950059E0,3.429693937E0,9.144054413E0,9.857857859E0
1.991320430E-1,-1.361103654E0,3.429693937E0,9.148842812E0,9.864924148E0
2.016442830E-1,-1.380257249E0,3.434482336E0,9.091382027E0,9.816007648E0
2.041564700E-1,-1.428141356E0,3.444059134E0,9.100958824E0,9.835069017E0
2.066686060E-1,-1.432929754E0,3.415328741E0,9.187150002E0,9.905628866E0
2.091807410E-1,-1.456871748E0,3.415328741E0,9.196727753E0,9.918001162E0
2.116929290E-1,-1.480813742E0,3.415328741E0,9.182361603E0,9.908231141E0
2.142052200E-1,-1.476025343E0,3.353079557E0,9.153631210E0,9.859551596E0
2.167176160E-1,-1.480813742E0,3.319560766E0,9.129689217E0,9.826673812E0
2.192301680E-1,-1.490390539E0,3.309983969E0,9.043498039E0,9.744850672E0
2.217428770E-1,-1.523909330E0,3.305195332E0,8.981248856E0,9.690688667E0
2.242557410E-1,-1.538274646E0,3.281253338E0,8.923788071E0,9.631557812E0
2.267687620E-1,-1.557428241E0,3.262099743E0,8.851962090E0,9.561595593E0
2.292819390E-1,-1.547851443E0,3.257311344E0,8.813654900E0,9.522942506E0
2.317952730E-1,-1.576581836E0,3.266888142E0,8.746617317E0,9.468974755E0
2.343087620E-1,-1.605312228E0,3.276464939E0,8.684368134E0,9.419686817E0
2.368224080E-1,-1.624465823E0,3.281253338E0,8.636484146E0,9.380531493E0
2.393362100E-1,-1.653196216E0,3.281253338E0,8.646060944E0,9.394362726E0
2.418501160E-1,-1.653196216E0,3.281253338E0,8.636484146E0,9.385549510E0
2.443640750E-1,-1.672349930E0,3.281253338E0,8.617330551E0,9.371326671E0
2.468780850E-1,-1.686715126E0,3.276464939E0,8.617330551E0,9.372225789E0
2.493920430E-1,-1.705868721E0,3.262099743E0,8.617330551E0,9.370681333E0
2.519048560E-1,-1.725022316E0,3.238157749E0,8.636484146E0,9.383508193E0
2.544176680E-1,-1.720233917E0,3.204638958E0,8.636484146E0,9.371113807E0
2.569304290E-1,-1.744175911E0,3.156754971E0,8.607753754E0,9.332774305E0
2.594431890E-1,-1.758541107E0,3.123236179E0,8.579023361E0,9.297672445E0
2.619559500E-1,-1.772906303E0,3.084928989E0,8.550292969E0,9.261074100E0
2.644687100E-1,-1.763329506E0,3.046621561E0,8.502408981E0,9.202292778E0
2.669814700E-1,-1.739387512E0,3.037044764E0,8.521562576E0,9.212281941E0
2.694942310E-1,-1.710657120E0,3.051409960E0,8.579023361E0,9.264830941E0
2.720070430E-1,-1.696291924E0,3.051409960E0,8.636484146E0,9.315437050E0
2.745199080E-1,-1.681926727E0,3.065775394E0,8.607753754E0,9.290924656E0
2.770328250E-1,-1.681926727E0,3.060986757E0,8.579023361E0,9.262729580E0
2.795457930E-1,-1.701080322E0,3.046621561E0,8.521562576E0,9.208290066E0
2.820588140E-1,-1.696291924E0,3.003525972E0,8.459313393E0,9.135565534E0
2.845718350E-1,-1.681926727E0,2.936488390E0,8.373122215E0,9.031113841E0
2.870849080E-1,-1.667561531E0,2.926911592E0,8.392275810E0,9.043111533E0
2.895980330E-1,-1.624465823E0,2.936488390E0,8.531139374E0,9.167452879E0
2.921112100E-1,-1.590947032E0,2.941276789E0,8.674791336E0,9.297000932E0
2.946244390E-1,-1.576581836E0,2.950853586E0,8.737040520E0,9.355694748E0
2.971377200E-1,-1.552639842E0,2.931699991E0,8.765770912E0,9.372528741E0
2.996510540E-1,-1.533486247E0,2.922123194E0,8.751405716E0,9.352939967E0
3.021644390E-1,-1.514332533E0,2.917334795E0,8.760982513E0,9.357289133E0
3.046778770E-1,-1.471236944E0,2.898181200E0,8.789712906E0,9.371395061E0
3.071913140E-1,-1.399410844E0,2.855085611E0,8.823231697E0,9.378660999E0
3.097047520E-1,-1.341950059E0,2.816778183E0,8.832808495E0,9.367687825E0
3.122181890E-1,-1.303642869E0,2.692279816E0,8.741828918E0,9.239449560E0
3.147316270E-1,-1.236605167E0,2.601300240E0,8.708310127E0,9.172274557E0
3.172447520E-1,-1.126471877E0,2.591723442E0,8.851962090E0,9.292104289E0
3.197573040E-1,-1.040280581E0,2.548627615E0,9.019556046E0,9.430274528E0
3.222698560E-1,-1.035492182E0,2.519897223E0,9.115324020E0,9.513740488E0
3.247824080E-1,-1.059434295E0,2.515108824E0,9.139266014E0,9.538047845E0
3.272947000E-1,-1.073799491E0,2.467224836E0,8.828020096E0,9.228985998E0
3.298069910E-1,-1.030703783E0,2.519897223E0,8.713098526E0,9.128544146E0
3.323192830E-1,-1.006761789E0,2.615665436E0,9.000402451E0,9.426691851E0
3.348315750E-1,-9.876081944E-1,2.634819031E0,9.383475304E0,9.796287564E0
3.373438660E-1,-9.971849918E-1,2.653972626E0,9.608530045E0,1.001807358E1
3.398561580E-1,-9.923965931E-1,2.663549423E0,9.661202431E0,1.007065931E1
3.423684500E-1,-9.923965931E-1,2.682703018E0,9.594164848E0,1.001148069E1
3.448807410E-1,-9.876081944E-1,2.673126221E0,9.541492462E0,9.957964257E0
3.473930850E-1,-9.971849918E-1,2.663549423E0,9.416994095E0,9.837105836E0
3.499054810E-1,-9.876081944E-1,2.658761024E0,9.215881348E0,9.642450370E0
3.524179810E-1,-9.828197956E-1,2.663549423E0,9.038709641E0,9.474106937E0
3.549305850E-1,-1.011550188E0,2.682703018E0,8.899846077E0,9.350261465E0
3.574432930E-1,-1.054645896E0,2.706645012E0,8.746617317E0,9.216372371E0
3.599561060E-1,-1.112106681E0,2.744952202E0,8.674791336E0,9.166435980E0
3.624690750E-1,-1.183932781E0,2.701856613E0,8.516774178E0,9.013166390E0
3.649822000E-1,-1.188721180E0,2.721010208E0,8.421006203E0,8.929182497E0
3.674954290E-1,-1.159990668E0,2.749740601E0,8.483255386E0,8.992901293E0
3.700087620E-1,-1.121683478E0,2.740163803E0,8.579023361E0,9.075588869E0
3.725222000E-1,-1.078587890E0,2.716221809E0,8.650849342E0,9.131177750E0
3.750357410E-1,-1.040280581E0,2.639607430E0,8.717886925E0,9.167947617E0
3.775493870E-1,-9.732429981E-1,2.524685621E0,8.780136108E0,9.187601945E0
3.800631370E-1,-9.157821536E-1,2.419340849E0,8.818443298E0,9.190038591E0
3.825769390E-1,-8.678981066E-1,2.309207439E0,8.851962090E0,9.189282831E0
3.850907410E-1,-8.152256608E-1,2.184709072E0,8.890269279E0,9.190997469E0
3.876045430E-1,-7.960720658E-1,2.103306293E0,8.923788071E0,9.202805096E0
3.901183450E-1,-7.721300721E-1,2.031480074E0,8.947730064E0,9.207875403E0
3.926321480E-1,-7.721300721E-1,1.988384485E0,8.995614052E0,9.245048939E0
3.951457410E-1,-7.912836671E-1,1.964442492E0,9.067440033E0,9.311478556E0
3.976590230E-1,-8.391677141E-1,1.940500498E0,9.115324020E0,9.357290026E0
4.001723040E-1,-8.726865053E-1,1.935712099E0,9.172784805E0,9.415335584E0
4.026855850E-1,-8.870517015E-1,1.945288897E0,9.201516151E0,9.446634803E0
4.051988660E-1,-9.445125461E-1,1.974019289E0,9.215881348E0,9.472134137E0
4.077121480E-1,-9.876081944E-1,1.997961283E0,9.268553734E0,9.532749213E0
4.102254290E-1,-1.001973391E0,2.017114878E0,9.354744911E0,9.622055677E0
4.127387100E-1,-1.035492182E0,2.021903276E0,9.436147690E0,9.705731304E0
4.152519910E-1,-1.073799491E0,1.997961283E0,9.450512886E0,9.718903665E0
4.177651160E-1,-1.083376288E0,2.007538080E0,9.460089684E0,9.731249157E0
4.202779810E-1,-1.121683478E0,2.002749681E0,9.546280861E0,9.818383695E0
4.227908450E-1,-1.126471877E0,2.017114878E0,9.589376450E0,9.863763583E0
4.253037100E-1,-1.164779186E0,2.002749681E0,9.622895241E0,9.897869955E0
4.278165750E-1,-1.207874775E0,1.997961283E0,9.560646057E0,9.841583398E0
4.303294390E-1,-1.241393566E0,1.988384485E0,9.517550468E0,9.801963975E0
4.328423040E-1,-1.255758762E0,1.983596087E0,9.488820076E0,9.774931710E0
4.353552200E-1,-1.308431268E0,1.993172884E0,9.455301285E0,9.751279553E0
4.378681890E-1,-1.341950059E0,2.002749681E0,9.416994095E0,9.720679710E0
4.403812100E-1,-1.389834046E0,1.993172884E0,9.321226120E0,9.632737576E0
4.428942830E-1,-1.408987641E0,2.007538080E0,9.211092949E0,9.532034863E0
4.454074080E-1,-1.423352957E0,2.064998865E0,9.249400139E0,9.583400069E0
4.479205850E-1,-1.423352957E0,2.103306293E0,9.297284126E0,9.637910724E0
4.504338140E-1,-1.428141356E0,2.108094692E0,9.316437721E0,9.658139716E0
4.529470950E-1,-1.432929754E0,2.122459888E0,9.273342133E0,9.620446869E0
4.554604290E-1,-1.408987641E0,2.093729496E0,9.148842812E0,9.490536032E0
4.579738140E-1,-1.385045648E0,2.041056871E0,9.081805229E0,9.410815630E0
4.604872000E-1,-1.313219666E0,2.045845270E0,9.201516151E0,9.517243732E0
4.630005850E-1,-1.241393566E0,2.060210466E0,9.364321709E0,9.668301103E0
4.655132930E-1,-1.179144382E0,2.050633669E0,9.469666481E0,9.760638462E0
4.680253250E-1,-1.159990668E0,2.017114878E0,9.527127266E0,9.807164969E0
4.705373040E-1,-1.169567585E0,1.978807688E0,9.503185272E0,9.777223457E0
4.730492830E-1,-1.207874775E0,1.930923700E0,9.484031677E0,9.753680570E0
4.755612620E-1,-1.169567585E0,1.940500498E0,9.661202431E0,9.923319149E0
4.780732930E-1,-1.116895080E0,1.959654093E0,9.847949982E0,1.010296083E1
4.805854290E-1,-1.092953086E0,1.945288897E0,9.938929558E0,1.018631514E1
4.830977200E-1,-1.073799491E0,1.959654093E0,9.977236748E0,1.022440916E1
4.856101680E-1,-1.064222693E0,1.954865694E0,9.977236748E0,1.022249103E1
4.881228250E-1,-1.069011092E0,1.926135302E0,9.982025146E0,1.022221150E1
4.906356890E-1,-1.069011092E0,1.873462796E0,9.934141159E0,1.016561893E1
4.931487620E-1,-1.035492182E0,1.835155606E0,9.919775963E0,1.014110425E1
4.956619910E-1,-9.780313969E-1,1.863885999E0,1.011610031E1,1.033276836E1
4.981753770E-1,-9.109937549E-1,1.859097600E0,1.022144604E1,1.042900343E1
5.006888660E-1,-8.870517015E-1,1.830367208E0,1.023102283E1,1.043124792E1
5.032024600E-1,-9.205705523E-1,1.825578809E0,1.017835045E1,1.038166682E1
5.057161060E-1,-9.780313969E-1,1.825578809E0,1.011131191E1,1.032123597E1
5.082297520E-1,-1.064222693E0,1.801636815E0,1.007300472E1,1.028804594E1
5.107433980E-1,-1.131260276E0,1.772906303E0,1.002512074E1,1.024333892E1
5.132562620E-1,-1.207874775E0,1.758541107E0,9.977236748E0,1.020277812E1
5.157691270E-1,-1.313219666E0,1.758541107E0,9.910199165E0,1.015032316E1
5.182819910E-1,-1.428141356E0,1.734599113E0,9.804854393E0,1.005900549E1
5.207948560E-1,-1.571793437E0,1.696291924E0,9.575011253E0,9.850318848E0
5.233075640E-1,-1.696291924E0,1.634042621E0,9.287707329E0,9.581701780E0
5.258200120E-1,-1.763329506E0,1.662773132E0,9.335591316E0,9.645071833E0
5.283321480E-1,-1.777694821E0,1.662773132E0,9.570222855E0,9.874926777E0
5.308442830E-1,-1.849520802E0,1.657984734E0,9.771335602E0,1.008209502E1
5.333564180E-1,-1.964442492E0,1.657984734E0,9.843161583E0,1.017328745E1
5.358685540E-1,-2.074575663E0,1.619677424E0,9.785700798E0,1.013346729E1
5.383807410E-1,-2.194285870E0,1.586158633E0,9.637260437E0,1.001037354E1
5.408929810E-1,-2.309207439E0,1.456871748E0,9.383475304E0,9.772641560E0
5.434052730E-1,-2.347514868E0,1.428141356E0,9.263765335E0,9.662699518E0
5.459176160E-1,-2.357091665E0,1.471236944E0,9.383475304E0,9.786216227E0
5.484300120E-1,-2.361880064E0,1.423352957E0,9.512762070E0,9.904395654E0
5.509424600E-1,-2.381033659E0,1.413776159E0,9.618106842E0,1.000879931E1
5.534549600E-1,-2.400187254E0,1.471236944E0,9.785700798E0,1.018260169E1
5.559675120E-1,-2.385822058E0,1.413776159E0,9.843161583E0,1.022637472E1
5.584801160E-1,-2.371456861E0,1.265335560E0,9.689932823E0,1.005582815E1
5.609928250E-1,-2.294842243E0,1.231816769E0,9.699509621E0,1.004311507E1
5.635056370E-1,-2.175132275E0,1.227028370E0,9.824007988E0,1.013646546E1
5.660185540E-1,-2.002749681E0,1.217451572E0,9.962871552E0,1.023484265E1
5.685315750E-1,-1.772906303E0,1.203086376E0,1.008258152E1,1.030771865E1
5.710447520E-1,-1.595735431E0,1.136048675E0,1.008258152E1,1.027109674E1
5.735580850E-1,-1.461660147E0,1.073799491E0,1.008258152E1,1.024441047E1
5.760715750E-1,-1.313219666E0,1.078587890E0,1.020229244E1,1.034285593E1
5.785851680E-1,-1.179144382E0,1.092953086E0,1.033636761E1,1.046066075E1
5.810988660E-1,-1.059434295E0,1.136048675E0,1.052790356E1,1.064188709E1
5.836126160E-1,-9.876081944E-1,1.169567585E0,1.070507431E1,1.081396663E1
5.861263660E-1,-9.828197956E-1,1.164779186E0,1.080084229E1,1.090783385E1
5.886401160E-1,-1.025915384E0,1.164779186E0,1.077211189E1,1.088336380E1
5.911534500E-1,-1.069011092E0,1.102529883E0,1.073380470E1,1.084310473E1
5.936663140E-1,-1.145625472E0,1.078587890E0,1.071465111E1,1.082956869E1
5.961791790E-1,-1.250970364E0,1.092953086E0,1.071943951E1,1.084738939E1
5.986920430E-1,-1.365892053E0,1.150413871E0,1.069070911E1,1.083883640E1
6.012049080E-1,-1.341950059E0,1.088164687E0,1.073859310E1,1.087668673E1
6.037177730E-1,-1.255758762E0,1.021126986E0,1.073380470E1,1.085514596E1
6.062306370E-1,-1.308431268E0,9.014169574E-1,1.044650078E1,1.056664201E1
6.087435540E-1,-1.346738458E0,8.295909166E-1,1.022144604E1,1.034310808E1
6.112565230E-1,-1.279700756E0,8.966285586E-1,1.036988640E1,1.048695002E1
6.137695430E-1,-1.174355984E0,9.253589511E-1,1.041298199E1,1.051977162E1
6.162826160E-1,-1.159990668E0,8.774749041E-1,1.017835045E1,1.028174880E1
6.187957410E-1,-1.236605167E0,6.619967818E-1,9.680356026E0,9.781447994E0
6.213089180E-1,-1.035492182E0,6.715735793E-1,9.517550468E0,9.597240335E0
6.238220950E-1,-9.493009448E-1,6.428431273E-1,9.455301285E0,9.524554685E0
6.263352730E-1,-1.035492182E0,6.236895323E-1,9.450512886E0,9.527508935E0
6.288484500E-1,-1.155202270E0,5.758054852E-1,9.479243279E0,9.566718213E0
6.313614700E-1,-1.183932781E0,5.422866940E-1,9.555857658E0,9.644178932E0
6.338744910E-1,-1.140837073E0,5.374982953E-1,9.642048836E0,9.724171913E0
6.363875120E-1,-1.107318282E0,5.901707411E-1,9.795277596E0,9.875318651E0
6.388996480E-1,-1.097741485E0,6.476315856E-1,9.986813545E0,1.006781544E1
6.414117830E-1,-1.073799491E0,7.242460251E-1,1.022144604E1,1.030318090E1
6.439239180E-1,-1.035492182E0,7.003039718E-1,1.032679081E1,1.040217661E1
6.464361060E-1,-1.040280581E0,6.189011335E-1,1.025496483E1,1.032615737E1
6.489483450E-1,-9.780313969E-1,6.284779310E-1,1.029806042E1,1.036347327E1
6.514606890E-1,-9.062053561E-1,6.236895323E-1,1.023581123E1,1.029475733E1
6.539731370E-1,-8.774749041E-1,5.662286878E-1,1.015440750E1,1.020796595E1
6.564857410E-1,-8.391677141E-1,4.944026470E-1,1.020229244E1,1.024867833E1
6.589985020E-1,-8.152256608E-1,4.417302012E-1,1.028369522E1,1.032541069E1
6.615114700E-1,-7.864952683E-1,3.746925592E-1,1.034594440E1,1.038255917E1
6.640246480E-1,-7.146692276E-1,2.645592988E-1,1.051353836E1,1.054112103E1
6.665379810E-1,-6.284779310E-1,1.400607973E-1,1.066676712E1,1.068618371E1
6.690514700E-1,-5.279214978E-1,1.197100850E-3,1.078168869E1,1.079460576E1
6.715651160E-1,-4.560954273E-1,-1.089361757E-1,1.078168869E1,1.079188126E1
6.740788660E-1,-3.507505357E-1,-2.238578647E-1,1.074816990E1,1.075622120E1
6.765927200E-1,-2.358288616E-1,-1.807622313E-1,1.116954994E1,1.117350152E1
6.791066270E-1,-2.118868530E-1,-3.711012751E-2,1.176809978E1,1.177006566E1
6.816205850E-1,-2.597708702E-1,6.823474914E-2,1.198836613E1,1.199137437E1
6.841345430E-1,-3.076549172E-1,8.738835901E-2,1.192611694E1,1.193040459E1
6.866485020E-1,-3.842693865E-1,4.429273307E-2,1.161008263E1,1.161652458E1
6.891619390E-1,-4.560954273E-1,-8.020575345E-2,1.102110863E1,1.103083367E1
6.916752200E-1,-4.513070285E-1,-1.759738177E-1,1.047523117E1,1.048642517E1
6.941885020E-1,-4.177882075E-1,-2.477998734E-1,1.020229244E1,1.021384956E1
6.967017830E-1,-3.315969408E-1,-3.292027414E-1,1.012088871E1,1.013166912E1
6.992150640E-1,-2.454056740E-1,-3.531447649E-1,1.023581123E1,1.024484098E1
7.017279810E-1,-4.225766063E-1,1.352723986E-1,1.022144604E1,1.023107173E1
7.042408980E-1,-5.231330991E-1,4.177882075E-1,1.034594440E1,1.036758317E1
7.067538140E-1,-5.662286878E-1,4.465186298E-1,1.057099915E1,1.059556590E1
7.092667310E-1,-6.332663298E-1,4.273650050E-1,1.073380470E1,1.076095862E1
7.117797000E-1,-6.715735793E-1,3.938461840E-1,1.086309147E1,1.089095414E1
7.142927200E-1,-7.242460251E-1,3.507505357E-1,1.091097546E1,1.094060984E1
7.168057930E-1,-8.008604646E-1,3.363853395E-1,1.095885944E1,1.099323123E1
7.193189180E-1,-8.583213091E-1,2.837128937E-1,1.102589703E1,1.106289355E1
7.218320950E-1,-9.349357486E-1,2.501940727E-1,1.104505062E1,1.108737323E1
7.243453770E-1,-9.923965931E-1,2.549824715E-1,1.108335781E1,1.113061936E1
7.268587620E-1,-1.040280581E0,2.454056740E-1,1.105941582E1,1.111094442E1
7.293722520E-1,-1.121683478E0,2.789244950E-1,1.100195503E1,1.106250366E1
7.318857930E-1,-1.116895080E0,2.741360962E-1,1.091576385E1,1.097617901E1
7.343993870E-1,-1.054645896E0,2.645592988E-1,1.080084229E1,1.085543475E1
7.369130330E-1,-1.045069098E0,2.932897210E-1,1.069549751E1,1.075043512E1
7.394267310E-1,-1.083376288E0,2.932897210E-1,1.057578754E1,1.063517772E1
7.419404290E-1,-1.078587890E0,3.603273630E-1,1.049438477E1,1.055581827E1
7.444541270E-1,-1.116895080E0,3.746925592E-1,1.041298199E1,1.047941043E1
7.469667830E-1,-1.092953086E0,3.890577853E-1,1.027890682E1,1.034416927E1
7.494793870E-1,-1.035492182E0,4.034229815E-1,1.018792725E1,1.024835868E1
7.519918870E-1,-1.030703783E0,3.938461840E-1,1.004906273E1,1.010945730E1
7.545043870E-1,-1.001973391E0,3.842693865E-1,9.895833969E0,9.953850691E0
7.570169390E-1,-8.248024583E-1,3.603273630E-1,9.809642792E0,9.850849030E0
7.595295430E-1,-8.104372621E-1,2.549824715E-1,9.771335602E0,9.808201877E0
7.620422520E-1,-7.769184709E-1,1.831564307E-1,9.838373184E0,9.870700862E0
7.645550640E-1,-5.949591398E-1,9.217676520E-2,9.938929558E0,9.957147869E0
7.670679810E-1,-5.374982953E-1,-9.457096457E-2,9.996390343E0,1.001127704E1
7.695810020E-1,-3.842693865E-1,-2.094926536E-1,1.005385113E1,1.006337283E1
7.720941270E-1,-1.400607973E-1,-3.292027414E-1,1.013525391E1,1.014156611E1
7.746074080E-1,-1.065419763E-1,-4.776432514E-1,1.010173512E1,1.011358228E1
7.771207930E-1,6.105214357E-2,-5.303156972E-1,1.015440750E1,1.016842927E1
7.796342830E-1,2.142810524E-1,-5.686228871E-1,1.017835045E1,1.019647322E1
7.821478250E-1,1.903390288E-1,-6.643909812E-1,1.009215832E1,1.011579477E1
7.846614180E-1,2.382230759E-1,-6.787561774E-1,1.009694672E1,1.012253887E1
7.871750120E-1,2.861070931E-1,-6.643909812E-1,1.008258152E1,1.010849755E1
7.896886060E-1,2.525882721E-1,-6.596025825E-1,1.008258152E1,1.010729076E1
7.922014700E-1,1.663970202E-1,-6.021417379E-1,1.009215832E1,1.011147478E1
7.947143350E-1,6.105214357E-2,-4.920084476E-1,1.003948593E1,1.005172012E1
7.972272000E-1,-4.429273307E-2,-3.531447649E-1,9.982025146E0,9.988368190E0
7.997400640E-1,-1.592144072E-1,-2.382230759E-1,1.000596714E1,1.001006882E1
8.022529290E-1,-2.789244950E-1,-1.328781992E-1,1.010652351E1,1.011124488E1
8.047657930E-1,-4.082113802E-1,1.077390742E-2,1.033157921E1,1.033964610E1
8.072786580E-1,-6.141127348E-1,1.831564307E-1,1.059015274E1,1.060952477E1
8.097915750E-1,-8.248024583E-1,3.363853395E-1,1.075295830E1,1.078978991E1
8.123045430E-1,-1.025915384E0,5.087678432E-1,1.087266827E1,1.093280670E1
8.148175640E-1,-1.198297977E0,6.667851806E-1,1.099716663E1,1.108233705E1
8.173306370E-1,-1.370680451E0,8.200140595E-1,1.116476154E1,1.127843466E1
8.198437620E-1,-1.495178938E0,9.971849918E-1,1.133235550E1,1.147398009E1
8.223568870E-1,-1.610100627E0,1.107318282E0,1.142333508E1,1.158926926E1
8.248700120E-1,-1.744175911E0,1.150413871E0,1.143291187E1,1.162226637E1
8.273831370E-1,-1.839944005E0,1.188721180E0,1.143770027E1,1.164557596E1
8.298962620E-1,-1.859097600E0,1.121683478E0,1.144248867E1,1.164667183E1
8.324093870E-1,-1.825578809E0,9.684545994E-1,1.138981628E1,1.157577459E1
8.349215750E-1,-1.792060018E0,7.625532150E-1,1.131320190E1,1.147961253E1
8.374337620E-1,-1.772906303E0,5.135562420E-1,1.121743393E1,1.136827871E1
8.399459500E-1,-1.705868721E0,2.310404629E-1,1.113124180E1,1.126356568E1
8.424581890E-1,-1.643619418E0,-7.062894851E-2,1.101632023E1,1.113848215E1
8.449705330E-1,-1.581370234E0,-3.579331636E-1,1.088703346E1,1.100710432E1
8.474829810E-1,-1.519120932E0,-6.452373862E-1,1.076253510E1,1.088835256E1
8.499955330E-1,-1.456871748E0,-9.660604000E-1,1.065719032E1,1.079960432E1
8.525082410E-1,-1.385045648E0,-1.291671872E0,1.063803673E1,1.080530393E1
8.550211060E-1,-1.289277673E0,-1.583764434E0,1.059972954E1,1.079466595E1
8.575341270E-1,-1.155202270E0,-1.871068597E0,1.050874996E1,1.073635021E1
8.600472520E-1,-1.016338587E0,-2.148796082E0,1.037946320E1,1.064817003E1
8.625605330E-1,-9.301473498E-1,-2.340332270E0,1.017835045E1,1.048528240E1
8.650739180E-1,-8.487445116E-1,-2.479195833E0,9.986813545E0,1.032488373E1
8.675874080E-1,-7.912836671E-1,-2.551021814E0,9.833584785E0,1.018985927E1
8.701010020E-1,-8.104372621E-1,-2.565387011E0,9.699509621E0,1.006570941E1
8.726146480E-1,-8.678981066E-1,-2.517503023E0,9.560646057E0,9.924566571E0
8.751282930E-1,-8.008604646E-1,-2.450465441E0,9.460089684E0,9.805072931E0
8.776419390E-1,-7.386112213E-1,-2.397793055E0,9.345168114E0,9.676111055E0
8.801555850E-1,-7.481880188E-1,-2.383427858E0,9.206304550E0,9.539211557E0
8.826688140E-1,-6.476315856E-1,-2.330755472E0,9.158419609E0,9.472512733E0
8.851819390E-1,-5.614402890E-1,-2.287659645E0,9.120112419E0,9.419397666E0
8.876949080E-1,-6.189011335E-1,-2.282871246E0,9.048286438E0,9.352327368E0
8.902078770E-1,-5.470750928E-1,-2.244564056E0,9.077016830E0,9.366407716E0
8.927208450E-1,-4.752490520E-1,-2.230198860E0,9.096170425E0,9.377631099E0
8.952338140E-1,-5.327098966E-1,-2.254140854E0,9.081805229E0,9.372519247E0
8.977465750E-1,-5.422866940E-1,-2.215833664E0,9.086593628E0,9.368573928E0
9.002593350E-1,-4.991910458E-1,-2.163161278E0,9.033921242E0,9.302698072E0
9.027720950E-1,-4.465186298E-1,-2.110488892E0,8.880692482E0,9.138940924E0
9.052848560E-1,-4.560954273E-1,-2.062604666E0,8.713098526E0,8.965514317E0
9.077976160E-1,-4.465186298E-1,-1.976413488E0,8.516774178E0,8.754486367E0
9.103103770E-1,-4.560954273E-1,-1.966836691E0,8.358757019E0,8.599144638E0
9.128231370E-1,-4.560954273E-1,-1.947683096E0,8.253412247E0,8.492367526E0
9.153358980E-1,-3.986345828E-1,-1.942894697E0,8.277354240E0,8.511659213E0
9.178487100E-1,-4.908113554E-2,-1.885433793E0,8.895057678E0,9.092816981E0
9.203615230E-1,6.883329749E-1,-1.784877419E0,9.857526779E0,1.004143535E1
9.228743350E-1,9.421183467E-1,-1.703474522E0,9.867103577E0,1.005729315E1
9.253872000E-1,6.165069342E-1,-1.473631144E0,8.655637741E0,8.801802898E0
9.279001160E-1,8.499415964E-2,-1.238999367E0,7.568670273E0,7.669883515E0
9.304130330E-1,3.711012751E-2,-9.564836025E-1,7.305307865E0,7.367751424E0
9.329256890E-1,2.094926536E-1,-7.793126702E-1,7.606977463E0,7.649661530E0
9.354380850E-1,2.717418969E-1,-7.649474144E-1,7.860762596E0,7.902567734E0
9.379504810E-1,2.382230759E-1,-7.457938194E-1,7.889492989E0,7.928244337E0
9.404628770E-1,-3.950432688E-2,-8.559271097E-1,7.870339394E0,7.916843688E0
9.429752730E-1,-3.124433160E-1,-8.319851160E-1,8.052298546E0,8.101193241E0
9.454877200E-1,-4.082113802E-1,-8.128314614E-1,8.435371399E0,8.484269100E0
9.480002730E-1,-5.231330991E-1,-8.894459605E-1,8.808866501E0,8.869098679E0
9.505129290E-1,-6.619967818E-1,-9.708487988E-1,9.153631210E0,9.228745931E0
9.530256890E-1,-7.577648163E-1,-9.277531505E-1,9.541492462E0,9.616392870E0
9.555385540E-1,-8.583213091E-1,-8.702923059E-1,9.910199165E0,9.985297775E0
9.580515230E-1,-9.636662006E-1,-7.841010690E-1,1.021186924E1,1.028716387E1
9.605645950E-1,-1.040280581E0,-6.212953329E-1,1.042734718E1,1.049751213E1
9.630777730E-1,-1.097741485E0,-3.914519846E-1,1.051832676E1,1.058269667E1
9.655910540E-1,-1.102529883E0,-1.472434103E-1,1.047044277E1,1.052936012E1
9.681044390E-1,-9.923965931E-1,1.209071875E-1,1.034115601E1,1.038936846E1
9.706179290E-1,-7.769184709E-1,4.082113802E-1,1.011131191E1,1.014932842E1
9.731314700E-1,-6.428431273E-1,5.279214978E-1,9.771335602E0,9.806678736E0
9.756450640E-1,-6.524199843E-1,6.763619781E-1,9.431359291E0,9.478061798E0
9.781586580E-1,-7.098808289E-1,7.960720658E-1,9.201516151E0,9.263129115E0
9.806722520E-1,-7.864952683E-1,8.870517015E-1,8.962095261E0,9.040165208E0
9.831858450E-1,-7.864952683E-1,9.780313969E-1,8.732252121E0,8.821980918E0
9.856986580E-1,-7.290344238E-1,1.045069098E0,8.559869766E0,8.654191529E0
9.882114700E-1,-6.955155730E-1,1.116895080E0,8.363545418E0,8.466409421E0
9.907242830E-1,-7.529764175E-1,1.116895080E0,8.124124527E0,8.235036578E0
9.932370950E-1,-1.025915384E0,1.131260276E0,7.812878609E0,7.960736420E0
9.957499080E-1,-1.471236944E0,1.179144382E0,7.496844292E0,7.730303613E0
9.982627730E-1,-1.997961283E0,1.217451572E0,7.233481884E0,7.602453406E0
1.000775689E0,-2.500743628E0,1.241393566E0,6.989273548E0,7.526268757E0
1.003288606E0,-2.816778183E0,1.231816769E0,6.769006729E0,7.434451155E0
1.005801523E0,-3.056198359E0,9.588778019E-1,6.553528786E0,7.294418043E0
1.008314439E0,-3.314772367E0,7.912836671E-1,6.467337132E0,7.310286948E0
1.010827408E0,-3.530250311E0,7.146692276E-1,6.452971935E0,7.390146559E0
1.013340429E0,-3.669114113E0,6.284779310E-1,6.419453144E0,7.420698185E0
1.015853502E0,-3.774458885E0,5.518634915E-1,6.443395138E0,7.487885823E0
1.018366575E0,-3.812766314E0,4.991910458E-1,6.433818340E0,7.495358370E0
1.020879648E0,-3.774458885E0,4.608838260E-1,6.500856400E0,7.531273976E0
1.023392720E0,-3.760093689E0,4.608838260E-1,6.606201172E0,7.615288069E0
1.025905793E0,-3.755305290E0,5.039794445E-1,6.697180748E0,7.694708771E0
1.028418866E0,-3.774458885E0,5.422866940E-1,6.778583527E0,7.777519486E0
1.030931939E0,-3.865438700E0,5.422866940E-1,6.874351501E0,7.905213455E0
1.033445012E0,-3.999513865E0,5.566518903E-1,6.974907875E0,8.059485861E0
1.035958085E0,-4.229357243E0,5.566518903E-1,7.085041523E0,8.270135271E0
1.038471158E0,-4.516661644E0,5.374982953E-1,7.257423878E0,8.565006606E0
1.040984231E0,-4.842272758E0,4.944026470E-1,7.468113422E0,8.914300732E0
1.043497304E0,-5.196614742E0,4.848258495E-1,7.721899033E0,9.320278191E0
1.046010377E0,-5.517437935E0,4.513070285E-1,8.018779755E0,9.744056042E0
1.048523450E0,-5.737704277E0,5.183446407E-1,8.248623848E0,1.006129847E1
1.051036523E0,-5.785588264E0,6.476315856E-1,8.502408981E0,1.030453379E1
1.053549439E0,-5.780799866E0,6.380547285E-1,8.775347710E0,1.052765351E1
1.056062356E0,-5.737704277E0,5.422866940E-1,9.048286438E0,1.072785219E1
1.058575273E0,-5.795165062E0,3.699041605E-1,9.273342133E0,1.094146432E1
1.061088189E0,-5.924452305E0,2.023100406E-1,9.570222855E0,1.125740778E1
1.063601106E0,-6.082469463E0,4.429273307E-2,9.891045570E0,1.161168287E1
1.066114023E0,-6.250063419E0,-1.089361757E-1,1.013525391E1,1.190791886E1
1.068626939E0,-6.278793812E0,-2.861070931E-1,1.037467480E1,1.213008599E1
1.071139856E0,-6.154295444E0,-4.297592044E-1,1.059015274E1,1.225607525E1
1.073652773E0,-5.905298710E0,-5.494692922E-1,1.072901630E1,1.225912967E1
1.076165689E0,-5.771223068E0,-6.979097724E-1,1.076732349E1,1.223639444E1
1.078678658E0,-5.503072739E0,-7.362170219E-1,1.067634392E1,1.203370868E1
1.081191679E0,-5.124788761E0,-8.271966577E-1,1.053748035E1,1.174675301E1
1.083704700E0,-4.780023575E0,-8.750807047E-1,1.044650078E1,1.152144827E1
1.086217720E0,-4.550180435E0,-8.942343593E-1,1.042734718E1,1.141198345E1
1.088730741E0,-4.444835663E0,-8.655039072E-1,1.047044277E1,1.140770936E1
1.091243762E0,-4.392162800E0,-7.888894677E-1,1.058536434E1,1.148753145E1
1.093756783E0,-4.669890404E0,-5.925649405E-1,1.068113232E1,1.167242893E1
1.096269804E0,-4.756081581E0,-4.249708056E-1,1.084872627E1,1.185309132E1
1.098782877E0,-4.803965569E0,-2.382230759E-1,1.103068542E1,1.203373825E1
1.101296002E0,-4.847061157E0,-4.189852998E-2,1.117912674E1,1.218477049E1
1.103809127E0,-4.923676014E0,1.113303825E-1,1.138023949E1,1.240019479E1
1.106322252E0,-5.072116375E0,2.741360962E-1,1.157656384E1,1.264192807E1
1.108835377E0,-5.000290394E0,4.991910458E-1,1.153346825E1,1.258065918E1
1.111348502E0,-4.736927986E0,7.194576263E-1,1.082478428E1,1.183773883E1
1.113861627E0,-4.416105270E0,8.726865053E-1,1.002033234E1,1.098501833E1
1.116374752E0,-4.258087635E0,1.035492182E0,9.776124001E0,1.071336338E1
1.118887877E0,-4.186261654E0,1.188721180E0,1.004906273E1,1.095086784E1
1.121401002E0,-4.205415249E0,1.337161660E0,1.032200241E1,1.122574062E1
1.123914127E0,-4.061763287E0,1.456871748E0,1.054705715E1,1.139564877E1
1.126427252E0,-3.640383720E0,1.485602140E0,1.087266827E1,1.156176122E1
1.128940377E0,-3.405751944E0,1.442506552E0,1.113124180E1,1.172964260E1
1.131453502E0,-3.276464939E0,1.456871748E0,1.136108589E1,1.191352049E1
1.133966627E0,-3.104082584E0,1.394622445E0,1.153346825E1,1.202502350E1
1.136479752E0,-2.821566820E0,1.236605167E0,1.158614063E1,1.198870662E1
1.138992877E0,-2.601300240E0,1.064222693E0,1.157177544E1,1.190820388E1
1.141506002E0,-2.381033659E0,9.109937549E-1,1.148079586E1,1.176043811E1
1.144019127E0,-2.136825085E0,7.864952683E-1,1.127489471E1,1.150251482E1
1.146532252E0,-1.887827992E0,7.146692276E-1,1.098758984E1,1.117147157E1
1.149045377E0,-1.662773132E0,6.619967818E-1,1.061888313E1,1.076864584E1
1.151558137E0,-1.442506552E0,6.619967818E-1,1.021186924E1,1.033447329E1
1.154070898E0,-1.270123959E0,7.050924301E-1,9.843161583E0,9.949783925E0
1.156583658E0,-1.150413871E0,7.194576263E-1,9.450512886E0,9.547421912E0
1.159096418E0,-1.016338587E0,7.481880188E-1,9.014767647E0,9.102679010E0
1.161608970E0,-8.918401599E-1,7.769184709E-1,8.636484146E0,8.717100412E0
1.164121470E0,-7.912836671E-1,8.200140595E-1,8.339603424E0,8.417097966E0
1.166633970E0,-6.476315856E-1,8.774749041E-1,8.090605736E0,8.163779152E0
1.169146470E0,-5.231330991E-1,9.493009448E-1,7.841609001E0,7.916165249E0
1.171658918E0,-4.656722248E-1,1.021126986E0,7.597400665E0,7.679846861E0
1.174170950E0,-4.848258495E-1,1.092953086E0,7.362768650E0,7.459220117E0
1.176682981E0,-5.518634915E-1,1.193509579E0,7.132925510E0,7.253112764E0
1.179195012E0,-6.619967818E-1,1.279700756E0,6.941389084E0,7.089341026E0
1.181707043E0,-7.386112213E-1,1.375468850E0,6.773795128E0,6.951385583E0
1.184219075E0,-7.242460251E-1,1.432929754E0,6.644508362E0,6.835737806E0
1.186731158E0,-5.374982953E-1,1.490390539E0,6.558317184E0,6.746976558E0
1.189243345E0,-4.129997790E-1,1.552639842E0,6.543951988E0,6.738291098E0
1.191755637E0,-3.651157618E-1,1.657984734E0,6.668450356E0,6.881166546E0
1.194268085E0,-3.651157618E-1,1.763329506E0,6.907870293E0,7.138719244E0
1.196780689E0,-3.842693865E-1,1.854309201E0,7.147290707E0,7.393908981E0
1.199293502E0,-4.417302012E-1,1.926135302E0,7.381922245E0,7.641851791E0
1.201806523E0,-4.991910458E-1,1.969230890E0,7.702745438E0,7.966137664E0
1.204319752E0,-5.470750928E-1,1.983596087E0,8.004414558E0,8.264659522E0
1.206833137E0,-6.284779310E-1,1.959654093E0,8.210315704E0,8.464308161E0
1.209346679E0,-7.290344238E-1,1.883039594E0,8.392275810E0,8.631779804E0
1.211860325E0,-8.487445116E-1,1.801636815E0,8.641272545E0,8.867798693E0
1.214374075E0,-9.540894032E-1,1.729810715E0,8.828020096E0,9.046351226E0
1.216887929E0,-1.083376288E0,1.648407817E0,8.966883659E0,9.181282866E0
1.219401835E0,-1.155202270E0,1.562216640E0,9.072228432E0,9.277949225E0
1.221915741E0,-1.169567585E0,1.471236944E0,9.158419609E0,9.349282123E0
1.224429648E0,-1.203086376E0,1.428141356E0,9.091382027E0,9.281176203E0
1.226943293E0,-1.499967337E0,1.519120932E0,8.818443298E0,9.073178750E0
1.229456627E0,-2.199074268E0,1.816002011E0,8.248623848E0,8.727748067E0
1.231969960E0,-3.329137564E0,2.385822058E0,7.511209488E0,8.555324177E0
1.234483241E0,-4.684255600E0,3.075352192E0,6.864774704E0,8.861443075E0
1.236996366E0,-6.063315868E0,3.760093689E0,6.505644798E0,9.655336251E0
1.239509491E0,-7.231686115E0,4.373009205E0,6.381145954E0,1.058959476E1
1.242022356E0,-8.242039680E0,4.904522419E0,6.294954777E0,1.147222794E1
1.244535220E0,-8.716091156E0,4.952406406E0,6.587047577E0,1.199523947E1
1.247047981E0,-8.558073997E0,4.564545631E0,7.070676327E0,1.200292344E1
1.249560637E0,-7.825448036E0,3.769670486E0,7.539939880E0,1.150211919E1
1.252073293E0,-6.398504257E0,2.668337822E0,7.985261440E0,1.057474745E1
1.254585950E0,-4.947618008E0,1.614889026E0,8.248623848E0,9.753285903E0
1.257098606E0,-3.817554712E0,8.726865053E-1,8.219893456E0,9.105051023E0
1.259611262E0,-3.137601376E0,6.859387755E-1,8.114547729E0,8.727023505E0
1.262123918E0,-2.711433411E0,8.008604646E-1,8.071452141E0,8.552285559E0
1.264636575E0,-2.371456861E0,8.631097078E-1,8.133701324E0,8.516211790E0
1.267149231E0,-2.074575663E0,9.780313969E-1,8.339603424E0,8.649242445E0
1.269661887E0,-2.227804661E0,1.231816769E0,8.392275810E0,8.769879100E0
1.272174595E0,-2.136825085E0,1.442506552E0,8.478466988E0,8.861785884E0
1.274687356E0,-1.926135302E0,1.638831019E0,8.612542152E0,8.976171045E0
1.277200168E0,-1.691503525E0,1.839944005E0,8.646060944E0,9.000052664E0
1.279713033E0,-1.452083349E0,1.897404790E0,8.670002937E0,8.993199760E0
1.282225950E0,-1.303642869E0,1.940500498E0,8.617330551E0,8.928796825E0
1.284738918E0,-1.116895080E0,1.974019289E0,8.588600159E0,8.883032109E0
1.287251939E0,-9.157821536E-1,1.945288897E0,8.612542152E0,8.876862518E0
1.289765064E0,-7.386112213E-1,1.911770105E0,8.598176956E0,8.839064342E0
1.292278293E0,-5.710170865E-1,1.897404790E0,8.583811760E0,8.809541973E0
1.294791575E0,-4.177882075E-1,1.844732404E0,8.526350975E0,8.733627286E0
1.297304908E0,-2.549824715E-1,1.839944005E0,8.421006203E0,8.623442205E0
1.299818293E0,-1.927332431E-1,1.854309201E0,8.344391823E0,8.550116000E0
1.302331731E0,-2.214636505E-1,1.849520802E0,8.277354240E0,8.484360115E0
1.304845220E0,-2.932897210E-1,1.926135302E0,8.243835449E0,8.470940855E0
1.307358762E0,-3.507505357E-1,1.974019289E0,8.205527306E0,8.446919939E0
1.309872356E0,-4.129997790E-1,2.074575663E0,8.205527306E0,8.473789669E0
1.312386002E0,-4.944026470E-1,2.127248287E0,8.243835449E0,8.528214477E0
1.314899648E0,-6.093243361E-1,2.141613483E0,8.310873032E0,8.603975535E0
1.317413293E0,-8.152256608E-1,2.175132275E0,8.478466988E0,8.790915524E0
1.319926887E0,-1.049857497E0,2.203862667E0,8.741828918E0,9.076275903E0
1.322440012E0,-1.303642869E0,2.232593060E0,9.005190849E0,9.368960387E0
1.324953137E0,-1.590947032E0,2.290053844E0,9.268553734E0,9.678922842E0
1.327466262E0,-1.859097600E0,2.352303267E0,9.421782494E0,9.887343420E0
1.329979387E0,-2.088941097E0,2.304419041E0,9.421782494E0,9.921895352E0
1.332492512E0,-2.218227863E0,2.232593060E0,9.383475304E0,9.897202403E0
1.335005689E0,-2.246958256E0,2.122459888E0,9.316437721E0,9.815786733E0
1.337518918E0,-2.256535053E0,1.983596087E0,9.225458145E0,9.702354450E0
1.340032200E0,-2.251746655E0,1.863885999E0,9.120112419E0,9.577102096E0
1.342545533E0,-2.208651066E0,1.729810715E0,8.976460457E0,9.404638588E0
1.345058918E0,-2.122459888E0,1.595735431E0,8.828020096E0,9.218738870E0
1.347572356E0,-2.007538080E0,1.495178938E0,8.665214539E0,9.019518402E0
1.350085845E0,-1.892616391E0,1.365892053E0,8.497620583E0,8.812333032E0
1.352599387E0,-1.772906303E0,1.289277673E0,8.397064209E0,8.678486101E0
1.355112981E0,-1.681926727E0,1.217451572E0,8.377910614E0,8.631364440E0
1.357626575E0,-1.581370234E0,1.155202270E0,8.277354240E0,8.505869581E0
1.360140168E0,-1.423352957E0,1.088164687E0,8.176796913E0,8.370785136E0
1.362653762E0,-1.260547161E0,1.016338587E0,8.109759331E0,8.269831901E0
1.365167356E0,-1.083376288E0,9.780313969E-1,8.090605736E0,8.221201297E0
1.367680950E0,-9.253589511E-1,9.349357486E-1,8.028356552E0,8.135410437E0
1.370194543E0,-7.146692276E-1,9.780313969E-1,8.085817337E0,8.176046693E0
1.372707616E0,-4.944026470E-1,1.073799491E0,8.172008514E0,8.257069849E0
1.375220637E0,-3.555389643E-1,1.241393566E0,8.253412247E0,8.353818268E0
1.377733606E0,-2.693476975E-1,1.504755735E0,8.325238228E0,8.464421395E0
1.380246575E0,-2.501940727E-1,1.768117905E0,8.334815025E0,8.523965011E0
1.382759543E0,-2.645592988E-1,1.997961283E0,8.296507835E0,8.537791469E0
1.385272512E0,-3.459621370E-1,2.165555477E0,8.282142639E0,8.567567159E0
1.387785168E0,-4.321534038E-1,2.280477047E0,8.315661430E0,8.633513604E0
1.390297564E0,-4.991910458E-1,2.337938070E0,8.358757019E0,8.693903900E0
1.392809960E0,-5.758054852E-1,2.309207439E0,8.392275810E0,8.723203782E0
1.395322356E0,-6.428431273E-1,2.232593060E0,8.421006203E0,8.735620443E0
1.397834752E0,-7.194576263E-1,2.117671490E0,8.459313393E0,8.749979137E0
1.400347200E0,-7.529764175E-1,2.021903276E0,8.502408981E0,8.771888328E0
1.402859700E0,-7.673416734E-1,1.926135302E0,8.516774178E0,8.765514978E0
1.405372252E0,-8.200140595E-1,1.830367208E0,8.531139374E0,8.763732435E0
1.407884908E0,-8.918401599E-1,1.758541107E0,8.593388557E0,8.816698509E0
1.410397668E0,-9.828197956E-1,1.753752708E0,8.650849342E0,8.881372510E0
1.412910533E0,-1.140837073E0,1.954865694E0,8.775347710E0,9.062545809E0
1.415423502E0,-1.270123959E0,2.021903276E0,8.904634476E0,9.219209450E0
1.417936575E0,-1.337161660E0,1.997961283E0,8.976460457E0,9.292830189E0
1.420449700E0,-1.375468850E0,1.974019289E0,9.067440033E0,9.381211833E0
1.422962877E0,-1.423352957E0,1.926135302E0,9.139266014E0,9.447862939E0
1.425476158E0,-1.361103654E0,2.122459888E0,9.402628899E0,9.734827648E0
1.427989491E0,-1.394622445E0,2.112883091E0,9.536704063E0,9.867014296E0
1.430502877E0,-1.528697729E0,2.031480074E0,9.503185272E0,9.837395913E0
1.433016314E0,-1.595735431E0,1.988384485E0,9.402628899E0,9.742149385E0
1.435529804E0,-1.552639842E0,1.940500498E0,9.326014519E0,9.651465146E0
1.438043345E0,-1.509544134E0,1.868674397E0,9.335591316E0,9.639706049E0
1.440556939E0,-1.476025343E0,1.796848416E0,9.364321709E0,9.648721994E0
1.443070585E0,-1.461660147E0,1.725022316E0,9.416994095E0,9.684623387E0
1.445584231E0,-1.428141356E0,1.672349930E0,9.445724487E0,9.698353113E0
1.448097877E0,-1.413776159E0,1.571793437E0,9.397840500E0,9.632689328E0
1.450611523E0,-1.404199243E0,1.538274646E0,9.349956512E0,9.579131024E0
1.453125168E0,-1.351526856E0,1.538274646E0,9.321226120E0,9.543488362E0
1.455638814E0,-1.318008065E0,1.547851443E0,9.297284126E0,9.516957575E0
1.458152460E0,-1.332373261E0,1.610100627E0,9.268553734E0,9.501248910E0
1.460666106E0,-1.327584863E0,1.710657120E0,9.244611740E0,9.494823620E0
1.463179648E0,-1.332373261E0,1.782483220E0,9.177573204E0,9.443532965E0
1.465693137E0,-1.289277673E0,1.878251195E0,9.110535622E0,9.391055520E0
1.468206210E0,-1.346738458E0,2.002749681E0,9.024344444E0,9.341493639E0
1.470719283E0,-1.442506552E0,2.117671490E0,8.856750488E0,9.219945060E0
1.473232356E0,-1.485602140E0,2.232593060E0,8.655637741E0,9.061542374E0
1.475745220E0,-1.480813742E0,2.304419041E0,8.449736595E0,8.882635025E0
1.478258085E0,-1.466448545E0,2.347514868E0,8.205527306E0,8.659790745E0
1.480770950E0,-1.418564558E0,2.357091665E0,7.990049839E0,8.450390698E0
1.483283814E0,-1.246181965E0,2.361880064E0,7.817667007E0,8.261196304E0
1.485796679E0,-1.260547161E0,2.352303267E0,7.630919456E0,8.084135177E0
1.488309595E0,-1.260547161E0,2.428917646E0,7.420229435E0,7.908756220E0
1.490822564E0,-1.212663174E0,2.567781210E0,7.286154270E0,7.819980586E0
1.493335585E0,-1.183932781E0,2.630030632E0,7.199963093E0,7.756173444E0
1.495848658E0,-1.227028370E0,2.577358246E0,6.941389084E0,7.505415149E0
1.498361835E0,-1.279700756E0,2.529474020E0,6.658873558E0,7.237158966E0
1.500875116E0,-1.274912357E0,2.524685621E0,6.457760334E0,7.049972166E0
1.503388502E0,-1.207874775E0,2.515108824E0,6.433818340E0,7.012756398E0
1.505901991E0,-1.025915384E0,2.467224836E0,6.524798393E0,7.050723001E0
1.508415585E0,-7.386112213E-1,2.333149672E0,6.658873558E0,7.094345001E0
1.510929231E0,-3.411737382E-1,2.021903276E0,6.773795128E0,7.077343627E0
1.513442929E0,-4.896142483E-1,2.203862667E0,7.104195118E0,7.454282061E0
1.515956627E0,-8.822633028E-1,2.582146645E0,7.391499043E0,7.879094359E0
1.518470325E0,-9.684545994E-1,2.701856613E0,7.429806232E0,7.964920221E0
1.520984023E0,-8.583213091E-1,2.673126221E0,7.554305077E0,8.059146633E0
1.523497460E0,-1.073799491E0,2.902969599E0,7.889492989E0,8.474926398E0
1.526010689E0,-1.217451572E0,3.070563793E0,8.095394135E0,8.743337837E0
1.528523866E0,-1.164779186E0,3.051409960E0,8.157643318E0,8.787204209E0
1.531036991E0,-1.025915384E0,2.912546396E0,8.339603424E0,8.892941817E0
1.533550116E0,-9.157821536E-1,2.721010208E0,8.622118950E0,9.087545801E0
1.536063241E0,-8.439561129E-1,2.562992811E0,8.918999672E0,9.318248184E0
1.538576366E0,-7.242460251E-1,2.558204412E0,9.263765335E0,9.637753385E0
1.541089543E0,-6.859387755E-1,2.510320425E0,9.493608475E0,9.843821540E0
1.543602773E0,-7.290344238E-1,2.400187254E0,9.632472038E0,9.953738374E0
1.546116054E0,-7.769184709E-1,2.299630642E0,9.728240013E0,1.002649276E1
1.548629387E0,-8.774749041E-1,2.261323452E0,9.790489197E0,1.008648723E1
1.551142720E0,-9.540894032E-1,2.237381458E0,9.771335602E0,1.006951646E1
1.553655637E0,-1.049857497E0,2.213439465E0,9.709086418E0,1.001338475E1
1.556168554E0,-1.001973391E0,2.069787264E0,9.661202431E0,9.931102779E0
1.558681470E0,-9.684545994E-1,1.935712099E0,9.579799652E0,9.821275224E0
1.561194387E0,-7.003039718E-1,1.677138329E0,9.488820076E0,9.661310732E0
1.563707304E0,-9.732429981E-1,1.863885999E0,9.646837234E0,9.873334876E0
1.566220273E0,-1.423352957E0,2.045845270E0,9.402628899E0,9.727324746E0
1.568733293E0,-1.667561531E0,2.199074268E0,8.942941666E0,9.359107582E0
1.571246366E0,-1.691503525E0,2.285265446E0,8.641272545E0,9.096989256E0
1.573759491E0,-1.547851443E0,2.266111851E0,8.502408981E0,8.934319532E0
1.576272668E0,-1.303642869E0,2.194285870E0,8.435371399E0,8.813050882E0
1.578785845E0,-1.102529883E0,2.112883091E0,8.373122215E0,8.705689101E0
1.581299023E0,-9.540894032E-1,2.069787264E0,8.306084633E0,8.613091654E0
1.583812200E0,-8.535329103E-1,2.179920673E0,8.219893456E0,8.546766698E0
1.586325429E0,-7.242460251E-1,2.290053844E0,8.119336128E0,8.467142262E0
1.588838658E0,-5.853823423E-1,2.337938070E0,8.066663742E0,8.419007711E0
1.591351887E0,-4.369418025E-1,2.175132275E0,7.851185799E0,8.158629603E0
1.593865116E0,-5.566518903E-1,2.189497471E0,7.501632690E0,7.834427453E0
1.596378345E0,-6.476315856E-1,2.280477047E0,7.199963093E0,7.580202555E0
1.598891575E0,-6.667851806E-1,2.347514868E0,6.941389084E0,7.357874078E0
1.601404804E0,-6.380547285E-1,2.381033659E0,6.725911140E0,7.163401133E0
1.603918033E0,-5.949591398E-1,2.395398855E0,6.615777969E0,7.061191839E0
1.606431314E0,-5.518634915E-1,2.433706045E0,6.543951988E0,7.003626636E0
1.608944648E0,-5.422866940E-1,2.476801634E0,6.476913929E0,6.955503953E0
1.611458033E0,-5.231330991E-1,2.500743628E0,6.414664745E0,6.904731039E0
1.613971470E0,-4.991910458E-1,2.553416014E0,6.361992359E0,6.873432317E0
1.616484960E0,-4.991910458E-1,2.586935043E0,6.304531574E0,6.832901506E0
1.618998502E0,-5.183446407E-1,2.606088638E0,6.314108372E0,6.850426533E0
1.621512095E0,-5.183446407E-1,2.639607430E0,6.338050365E0,6.885280748E0
1.624025689E0,-5.279214978E-1,2.663549423E0,6.419453144E0,6.970120179E0
1.626539283E0,-5.566518903E-1,2.682703018E0,6.500856400E0,7.054636117E0
1.629052877E0,-5.997475386E-1,2.697068214E0,6.606201172E0,7.160710020E0
1.631566418E0,-6.284779310E-1,2.701856613E0,6.697180748E0,7.248947761E0
1.634079856E0,-6.476315856E-1,2.730587006E0,6.797737122E0,7.354234293E0
1.636592981E0,-4.656722248E-1,2.879027605E0,7.161655903E0,7.732720468E0
1.639106106E0,-4.465186298E-1,2.946065187E0,7.281365871E0,7.867462611E0
1.641619231E0,-5.614402890E-1,2.970007181E0,7.219116688E0,7.826353149E0
1.644132356E0,-6.811503768E-1,2.993949175E0,7.233481884E0,7.858177757E0
1.646645481E0,-7.481880188E-1,2.984372377E0,7.305307865E0,7.926776571E0
1.649158658E0,-7.673416734E-1,2.965218782E0,7.396287441E0,8.005398403E0
1.651671887E0,-7.769184709E-1,2.936488390E0,7.487267494E0,8.079959214E0
1.654185168E0,-8.248024583E-1,2.922123194E0,7.563881874E0,8.150546734E0
1.656698502E0,-8.870517015E-1,2.922123194E0,7.611765862E0,8.201502558E0
1.659211887E0,-9.205705523E-1,2.950853586E0,7.669226646E0,8.268737774E0
1.661725325E0,-8.966285586E-1,2.950853586E0,7.731475830E0,8.323893210E0
1.664238814E0,-8.391677141E-1,2.941276789E0,7.812878609E0,8.390255285E0
1.666752304E0,-7.625532150E-1,2.931699991E0,7.851185799E0,8.415311681E0
1.669265793E0,-7.003039718E-1,2.922123194E0,7.908646584E0,8.460255339E0
1.671779075E0,-6.332663298E-1,2.922123194E0,8.009202957E0,8.549103006E0
1.674292356E0,-6.141127348E-1,2.941276789E0,8.100182533E0,8.639513914E0
1.676805481E0,-5.949591398E-1,2.974795580E0,8.071452141E0,8.622744620E0
1.679318606E0,-5.662286878E-1,3.051409960E0,7.908646584E0,8.495787689E0
1.681831731E0,-4.944026470E-1,3.113659382E0,7.635707855E0,8.260952922E0
1.684344856E0,-3.842693865E-1,3.142389774E0,7.348403454E0,8.001331750E0
1.686857981E0,-2.166752517E-1,3.123236179E0,7.463325024E0,8.093378331E0
1.689371158E0,-8.738835901E-2,3.032256365E0,7.855974197E0,8.421314979E0
1.691884387E0,-2.992752194E-2,2.931699991E0,8.186373711E0,8.695543400E0
1.694397668E0,-4.908113554E-2,2.912546396E0,8.330026627E0,8.824663114E0
1.696910950E0,-1.448491961E-1,2.950853586E0,8.282142639E0,8.793315920E0
1.699424231E0,-2.166752517E-1,2.950853586E0,8.191162109E0,8.709168833E0
1.701937512E0,-2.262520641E-1,2.912546396E0,8.085817337E0,8.597357647E0
1.704450741E0,-2.214636505E-1,2.835932016E0,8.033144951E0,8.521911426E0
1.706963762E0,-1.879448295E-1,2.735375404E0,8.023568153E0,8.479106543E0
1.709476575E0,-1.209071875E-1,2.663549423E0,8.037933350E0,8.468617751E0
1.711989387E0,-6.344634295E-2,2.625242233E0,8.076240540E0,8.492442727E0
1.714502200E0,-4.908113554E-2,2.639607430E0,8.081028938E0,8.501350777E0
1.717015012E0,-5.865794048E-2,2.673126221E0,8.071452141E0,8.502786849E0
1.719527825E0,-1.065419763E-1,2.764105797E0,8.047510147E0,8.509644623E0
1.722040637E0,-1.927332431E-1,2.922123194E0,8.057086945E0,8.572782518E0
1.724553033E0,-2.166752517E-1,2.965218782E0,8.100182533E0,8.628582019E0
1.727065325E0,-1.927332431E-1,2.984372377E0,8.167220116E0,8.697534651E0
1.729577616E0,-1.448491961E-1,2.974795580E0,8.243835449E0,8.765341576E0
1.732089908E0,-1.113303825E-1,2.950853586E0,8.349180222E0,8.856000323E0
1.734602200E0,-5.865794048E-2,2.960430384E0,8.478466988E0,8.980645370E0
1.737114491E0,-1.077390742E-2,2.998737574E0,8.650849342E0,9.155858095E0
1.739626783E0,3.711012751E-2,3.013102770E0,8.823231697E0,9.323603544E0
1.742139075E0,1.137245819E-1,3.075352192E0,9.024344444E0,9.534648239E0
1.744651418E0,1.663970202E-1,3.171120167E0,9.249400139E0,9.779319711E0
1.747163814E0,2.190694511E-1,3.257311344E0,9.416994095E0,9.966837332E0
1.749676262E0,2.813186944E-1,3.309983969E0,9.565434456E0,1.012584171E1
1.752188762E0,3.435679376E-1,3.353079557E0,9.752182007E0,1.031824769E1
1.754701314E0,3.866635859E-1,3.400963545E0,9.857526779E0,1.043488840E1
1.757213918E0,4.249708056E-1,3.396175146E0,9.953294754E0,1.052533526E1
1.759726575E0,4.680664241E-1,3.400963545E0,1.004906273E1,1.061928910E1
1.762239283E0,5.111620426E-1,3.386598349E0,1.015440750E1,1.071645122E1
1.764752043E0,5.734112859E-1,3.348291159E0,1.027411842E1,1.082115352E1
1.767264908E0,7.505822182E-1,3.228580952E0,1.037946320E1,1.089588752E1
1.769777877E0,8.655039072E-1,3.137601376E0,1.048480797E1,1.097838046E1
1.772290950E0,7.505822182E-1,3.228580952E0,1.055184555E1,1.106022392E1
1.774804127E0,6.356605291E-1,3.333925962E0,1.053748035E1,1.107057446E1
1.777317408E0,6.021417379E-1,3.353079557E0,1.048480797E1,1.102437823E1
1.779830793E0,5.973533392E-1,3.357867956E0,1.044171238E1,1.098460130E1
1.782344283E0,6.260837317E-1,3.353079557E0,1.045607758E1,1.099839450E1
1.784857825E0,6.787561774E-1,3.286041737E0,1.045607758E1,1.098127217E1
1.787371418E0,7.026981711E-1,3.195062160E0,1.046565437E1,1.096504119E1
1.789885012E0,7.026981711E-1,3.132812977E0,1.050396156E1,1.098369293E1
1.792398606E0,6.739677787E-1,3.094505787E0,1.049917316E1,1.096644134E1
1.794911887E0,6.165069342E-1,3.084928989E0,1.044650078E1,1.090991504E1
1.797425012E0,5.686228871E-1,3.089717388E0,1.040819359E1,1.087199059E1
1.799938137E0,5.111620426E-1,3.142389774E0,1.038425159E1,1.086133423E1
1.802451262E0,4.584896266E-1,3.113659382E0,1.035073280E1,1.081863009E1
1.804964335E0,4.058171809E-1,3.147178173E0,1.033157921E1,1.080791131E1
1.807477252E0,2.525882721E-1,3.295618534E0,1.031721401E1,1.083373469E1
1.809990168E0,9.935937077E-2,3.463212729E0,1.029327202E1,1.086071653E1
1.812503085E0,-3.471592441E-2,3.626018524E0,1.027411842E1,1.089526158E1
1.815016002E0,-1.544260085E-1,3.788824081E0,1.022144604E1,1.090215549E1
1.817528918E0,-2.501940727E-1,3.951629877E0,1.015919590E1,1.090354241E1
1.820041835E0,-3.076549172E-1,4.109647274E0,1.012567711E1,1.093220880E1
1.822554752E0,-3.603273630E-1,4.248510838E0,1.012567711E1,1.098676554E1
1.825067668E0,-3.794809580E-1,4.329913616E0,1.011131191E1,1.100594323E1
1.827580637E0,-3.603273630E-1,4.344278812E0,1.010652351E1,1.100656221E1
1.830093658E0,-3.076549172E-1,4.305971622E0,1.013046551E1,1.101191966E1
1.832606731E0,-2.118868530E-1,4.214992046E0,1.017356110E1,1.101419082E1
1.835119856E0,-6.823474914E-2,4.085705280E0,1.023102283E1,1.101687215E1
1.837633085E0,1.137245819E-1,3.903745890E0,1.032679081E1,1.104059662E1
1.840146418E0,3.148375154E-1,3.726574898E0,1.049438477E1,1.114085251E1
1.842659856E0,5.159504414E-1,3.530250311E0,1.072901630E1,1.130666454E1
1.845173398E0,7.362170219E-1,3.333925962E0,1.093970585E1,1.146011526E1
1.847687043E0,9.325415492E-1,3.147178173E0,1.120785713E1,1.167863116E1
1.850200741E0,1.133654475E0,2.950853586E0,1.153825665E1,1.196344749E1
1.852714491E0,1.310825467E0,2.764105797E0,1.188302135E1,1.227048250E1
1.855228293E0,1.468842745E0,2.586935043E0,1.218947983E1,1.254723676E1
1.857742095E0,1.588552833E0,2.395398855E0,1.246720695E1,1.279424422E1
1.860255898E0,1.665167332E0,2.208651066E0,1.276408768E1,1.306035436E1
1.862768814E0,1.717839718E0,2.041056871E0,1.304660320E1,1.331655892E1
1.865281731E0,1.741781712E0,1.863885999E0,1.332911968E1,1.357104661E1
1.867794595E0,1.770512104E0,1.701080322E0,1.357811642E1,1.379831993E1
1.870307356E0,1.780089021E0,1.538274646E0,1.381753635E1,1.401639457E1
1.872820116E0,1.770512104E0,1.408987641E0,1.403301430E1,1.421426922E1
1.875332877E0,1.741781712E0,1.294066072E0,1.422933960E1,1.439383604E1
1.877845637E0,1.679532528E0,1.207874775E0,1.434904957E1,1.449741406E1
1.880358398E0,1.598129630E0,1.169567585E0,1.442087555E1,1.455622060E1
1.882871158E0,1.497573137E0,1.159990668E0,1.444960594E1,1.457324314E1
1.885383970E0,1.392228246E0,1.155202270E0,1.444960594E1,1.456241407E1
1.887896835E0,1.262941360E0,1.188721180E0,1.437777996E1,1.448201076E1
1.890409752E0,1.143231273E0,1.217451572E0,1.423412800E1,1.433176772E1
1.892922720E0,1.004367590E0,1.279700756E0,1.403780270E1,1.413174769E1
1.895435689E0,8.750807047E-1,1.337161660E0,1.378401756E1,1.387634346E1
1.897948658E0,7.697358727E-1,1.423352957E0,1.348234844E1,1.357910698E1
1.900461679E0,6.643909812E-1,1.533486247E0,1.313758373E1,1.324345505E1
1.902974752E0,5.446808934E-1,1.681926727E0,1.276408768E1,1.288594153E1
1.905487877E0,4.537012279E-1,1.835155606E0,1.238580418E1,1.252923725E1
1.908001106E0,4.058171809E-1,2.031480074E0,1.200751972E1,1.218491398E1
1.910514439E0,3.292027414E-1,2.189497471E0,1.158614063E1,1.179580130E1
1.913027877E0,3.004723191E-1,2.366668463E0,1.117912674E1,1.143084765E1
1.915541418E0,2.813186944E-1,2.548627615E0,1.077690029E1,1.107773546E1
1.918055012E0,3.100491166E-1,2.697068214E0,1.043213558E1,1.077959926E1
1.920568658E0,3.722983599E-1,2.826355219E0,1.015440750E1,1.054698448E1
1.923082356E0,4.489128292E-1,2.979583979E0,9.919775963E0,1.036732360E1
1.925596054E0,5.638344884E-1,3.104082584E0,9.766547203E0,1.026346346E1
1.928109752E0,6.883329749E-1,3.199850559E0,9.718663216E0,1.025501149E1
1.930623450E0,8.415619135E-1,3.309983969E0,9.742605209E0,1.032388379E1
1.933136991E0,9.947907925E-1,3.400963545E0,9.819219589E0,1.043902462E1
1.935650116E0,1.124077678E0,3.487154722E0,9.929352760E0,1.058375382E1
1.938163241E0,1.267729759E0,3.558980942E0,1.007779312E1,1.076268546E1
1.940676366E0,1.392228246E0,3.635595322E0,1.027411842E1,1.098696328E1
1.943189491E0,1.483207941E0,3.678690910E0,1.050874996E1,1.123238614E1
1.945702616E0,1.617283225E0,3.693056107E0,1.075295830E1,1.148391835E1
1.948215741E0,1.698686123E0,3.649960518E0,1.100195503E1,1.171540699E1
1.950728866E0,1.794454217E0,3.597288132E0,1.124137592E1,1.193855437E1
1.953241991E0,1.871068597E0,3.520673513E0,1.141375828E1,1.209007517E1
1.955755116E0,1.933317900E0,3.429693937E0,1.161487103E1,1.226400210E1
1.958268241E0,2.000355482E0,3.357867956E0,1.182077217E1,1.245019494E1
1.960781366E0,2.057816267E0,3.281253338E0,1.199794292E1,1.260761142E1
1.963294491E0,2.076969862E0,3.209427357E0,1.215117264E1,1.273833679E1
1.965807616E0,2.091335297E0,3.128024578E0,1.231876659E1,1.288061456E1
1.968320741E0,2.067393064E0,3.041833162E0,1.244805336E1,1.298001909E1
1.970833866E0,2.038662672E0,2.970007181E0,1.253903294E1,1.304624218E1
1.973346991E0,1.995567083E0,2.907757998E0,1.262522411E1,1.310853266E1
1.975860168E0,1.923741102E0,2.869450808E0,1.265874290E1,1.312167290E1
1.978373398E0,1.871068597E0,2.845508814E0,1.266353130E1,1.311346038E1
1.980886627E0,1.827973008E0,2.821566820E0,1.261085892E1,1.305130213E1
1.983399856E0,1.804031014E0,2.811989784E0,1.251509094E1,1.295335153E1
1.985913085E0,1.784877419E0,2.831143618E0,1.237143898E1,1.281614856E1
1.988425793E0,1.775300503E0,2.831143618E0,1.218947983E1,1.263924383E1
1.990938189E0,1.765723705E0,2.840720415E0,1.197878933E1,1.243699588E1
1.993450585E0,1.741781712E0,2.831143618E0,1.172500420E1,1.218707927E1
1.995962981E0,1.732204914E0,2.850297213E0,1.149037266E1,1.196467266E1
1.998475429E0,1.732204914E0,2.864662409E0,1.121743393E1,1.170630807E1
2.000987929E0,1.746570110E0,2.864662409E0,1.095885944E1,1.146095102E1
2.003500533E0,1.717839718E0,2.883816004E0,1.069549751E1,1.120986329E1
2.006013241E0,1.717839718E0,2.907757998E0,1.039382839E1,1.092875558E1
2.008526106E0,1.698686123E0,2.955641985E0,1.005385113E1,1.061608575E1
2.011039127E0,1.665167332E0,3.008314371E0,9.713874817E0,1.030446998E1
2.013552252E0,1.660378933E0,3.046621561E0,9.436147690E0,1.005383730E1
2.016065481E0,1.650802016E0,3.089717388E0,9.244611740E0,9.886068332E0
2.018578814E0,1.665167332E0,3.118447781E0,9.086593628E0,9.750060644E0
2.021092252E0,1.660378933E0,3.137601376E0,8.923788071E0,9.603925974E0
2.023605741E0,1.669955730E0,3.113659382E0,8.765770912E0,9.451051083E0
2.026119283E0,1.679532528E0,3.089717388E0,8.612542152E0,9.302852540E0
2.028632825E0,1.703474522E0,3.027467966E0,8.459313393E0,9.144800206E0
2.031146366E0,1.708262920E0,2.979583979E0,8.330026627E0,9.010295583E0
2.033659908E0,1.698686123E0,2.941276789E0,8.234258652E0,8.907281248E0
2.036172825E0,1.703474522E0,2.898181200E0,8.128912926E0,8.796618957E0
2.038685689E0,1.693897724E0,2.864662409E0,8.037933350E0,8.699652450E0
2.041198554E0,1.674744129E0,2.855085611E0,7.985261440E0,8.644112564E0
2.043711418E0,1.631648421E0,2.840720415E0,7.946953773E0,8.595699118E0
2.046224335E0,1.612494826E0,2.850297213E0,7.927800179E0,8.577549151E0
2.048737304E0,1.578976035E0,2.840720415E0,7.946953773E0,8.585856514E0
2.051250273E0,1.550245643E0,2.864662409E0,7.937376976E0,8.579714770E0
2.053763241E0,1.521515131E0,2.855085611E0,7.946953773E0,8.580244543E0
2.056275950E0,1.483207941E0,2.835932016E0,7.961318970E0,8.580502079E0
2.058788658E0,1.449689150E0,2.811989784E0,7.980473042E0,8.584686083E0
2.061301366E0,1.435323954E0,2.802412987E0,8.009202957E0,8.605870404E0
2.063814075E0,1.387439847E0,2.768894196E0,8.018779755E0,8.596080104E0
2.066326783E0,1.320402265E0,2.735375404E0,8.013991356E0,8.570285771E0
2.068839491E0,1.234210968E0,2.697068214E0,8.037933350E0,8.567720012E0
2.071352200E0,1.148019671E0,2.677914619E0,8.066663742E0,8.576726637E0
2.073864960E0,1.080982089E0,2.663549423E0,8.100182533E0,8.595113430E0
2.076377773E0,1.009155989E0,2.620453835E0,8.128912926E0,8.600255779E0
2.078890637E0,9.612720013E-1,2.586935043E0,8.152854919E0,8.607282969E0
2.081403554E0,9.038111567E-1,2.539050817E0,8.215105057E0,8.645901038E0
2.083916523E0,8.463503122E-1,2.491166830E0,8.286931038E0,8.694564224E0
2.086429543E0,8.176198602E-1,2.428917646E0,8.330026627E0,8.715359245E0
2.088942616E0,7.553706169E-1,2.390610456E0,8.320449829E0,8.689964815E0
2.091455741E0,7.026981711E-1,2.371456861E0,8.301296234E0,8.661934630E0
2.093968866E0,6.548141837E-1,2.337938070E0,8.267777443E0,8.616895026E0
2.096481991E0,6.212953329E-1,2.299630642E0,8.282142639E0,8.617899725E0
2.098995116E0,5.973533392E-1,2.270900249E0,8.315661430E0,8.640835838E0
2.101508241E0,5.781996846E-1,2.242169857E0,8.349180222E0,8.664320569E0
2.104021366E0,5.877765417E-1,2.227804661E0,8.397064209E0,8.707426841E0
2.106534491E0,5.781996846E-1,2.242169857E0,8.444948196E0,8.756642655E0
2.109047252E0,5.877765417E-1,2.237381458E0,8.497620583E0,8.806867356E0
2.111559960E0,6.021417379E-1,2.227804661E0,8.492832184E0,8.800788986E0
2.114072616E0,6.356605291E-1,2.218227863E0,8.521562576E0,8.828455579E0
2.116585273E0,6.979097724E-1,2.184709072E0,8.540716171E0,8.843294889E0
2.119097929E0,7.218518257E-1,2.146401882E0,8.540716171E0,8.835832944E0
2.121610585E0,7.410054207E-1,2.127248287E0,8.516774178E0,8.809637717E0
2.124123241E0,7.888894677E-1,2.103306293E0,8.492832184E0,8.784898546E0
2.126635898E0,8.415619135E-1,2.112883091E0,8.492832184E0,8.792081660E0
2.129148554E0,8.750807047E-1,2.132036686E0,8.468890190E0,8.776870041E0
2.131661262E0,9.085995555E-1,2.151190281E0,8.449736595E0,8.766482835E0
2.134174023E0,9.373299479E-1,2.160767078E0,8.425794601E0,8.748800859E0
2.136686835E0,9.708487988E-1,2.160767078E0,8.377910614E0,8.706368245E0
2.139199700E0,9.995791912E-1,2.199074268E0,8.353968620E0,8.696199049E0
2.141712616E0,1.033097982E0,2.194285870E0,8.306084633E0,8.652931518E0
2.144225585E0,1.061828494E0,2.213439465E0,8.291719437E0,8.647508614E0
2.146738606E0,1.085770488E0,2.218227863E0,8.253412247E0,8.615001226E0
2.149251679E0,1.100135684E0,2.184709072E0,8.215105057E0,8.571534480E0
2.151764752E0,1.124077678E0,2.170343876E0,8.181585312E0,8.538868858E0
2.154277825E0,1.138442874E0,2.155978680E0,8.133701324E0,8.491253940E0
2.156790898E0,1.152808070E0,2.160767078E0,8.104970932E0,8.466902304E0
2.159303970E0,1.128866076E0,2.160767078E0,8.085817337E0,8.445335695E0
2.161816731E0,9.947907925E-1,2.275688648E0,8.018779755E0,8.394593278E0
2.164328918E0,1.100135684E0,2.112883091E0,7.908646584E0,8.259616472E0
2.166841106E0,1.176750183E0,1.978807688E0,7.760206223E0,8.094517989E0
2.169353345E0,1.200692177E0,1.873462796E0,7.630919456E0,7.948739290E0
2.171865637E0,1.195903778E0,1.806425214E0,7.606977463E0,7.909454091E0
2.174378033E0,1.210268974E0,1.777694821E0,7.583035469E0,7.882092158E0
2.176890533E0,1.200692177E0,1.787271619E0,7.568670273E0,7.868975235E0
2.179403189E0,1.167173386E0,1.820790410E0,7.611765862E0,7.913062047E0
2.181916002E0,1.162384868E0,1.873462796E0,7.640496254E0,7.952243987E0
2.184428970E0,1.152808070E0,1.892616391E0,7.645284653E0,7.959983711E0
2.186942095E0,1.152808070E0,1.897404790E0,7.664438248E0,7.979519098E0
2.189455377E0,1.162384868E0,1.883039594E0,7.683591843E0,7.995908972E0
2.191968814E0,1.171961784E0,1.854309201E0,7.669226646E0,7.976778447E0
2.194482408E0,1.181538582E0,1.796848416E0,7.621342659E0,7.918936897E0
2.196996106E0,1.181538582E0,1.763329506E0,7.573458672E0,7.865280708E0
2.199509908E0,1.181538582E0,1.748964310E0,7.530363083E0,7.820567610E0
2.202023762E0,1.200692177E0,1.744175911E0,7.496844292E0,7.790153121E0
2.204537668E0,1.167173386E0,1.744175911E0,7.429806232E0,7.720522260E0
2.207051575E0,1.124077678E0,1.758541107E0,7.367557049E0,7.657474409E0
2.209565220E0,1.090558887E0,1.768117905E0,7.329249859E0,7.617969749E0
2.212078085E0,1.061828494E0,1.811213613E0,7.281365871E0,7.578011840E0
2.214590950E0,1.037886381E0,1.844732404E0,7.219116688E0,7.523024095E0
2.217103814E0,1.009155989E0,1.887827992E0,7.176021099E0,7.488495787E0
2.219616679E0,9.612720013E-1,1.906981707E0,7.132925510E0,7.445753785E0
2.222129543E0,9.373299479E-1,1.926135302E0,7.085041523E0,7.401783435E0
2.224642408E0,8.990227580E-1,1.950077295E0,7.046734333E0,7.366648365E0
2.227155273E0,8.750807047E-1,1.978807688E0,7.013215542E0,7.339389507E0
2.229668137E0,8.559271097E-1,1.997961283E0,6.989273548E0,7.319453889E0
2.232181002E0,8.271966577E-1,1.993172884E0,6.955754280E0,7.282822946E0
2.234693918E0,8.080430627E-1,2.017114878E0,6.898293495E0,7.232436600E0
2.237206887E0,8.128314614E-1,2.031480074E0,6.864774704E0,7.205049480E0
2.239719908E0,8.128314614E-1,2.036268473E0,6.836044312E0,7.179037965E0
2.242232981E0,8.080430627E-1,2.050633669E0,6.826467514E0,7.173471318E0
2.244746106E0,7.936778665E-1,2.036268473E0,6.802525520E0,7.144974969E0
2.247259283E0,7.888894677E-1,2.041056871E0,6.773795128E0,7.118466139E0
2.249772512E0,7.793126702E-1,2.055422068E0,6.764218330E0,7.112435429E0
2.252285793E0,7.745242715E-1,2.064998865E0,6.797737122E0,7.146561280E0
2.254799127E0,7.697358727E-1,2.060210466E0,6.831255913E0,7.176560306E0
2.257312512E0,7.984662652E-1,2.060210466E0,6.859986305E0,7.207040145E0
2.259825950E0,7.936778665E-1,2.079364061E0,6.869563103E0,7.221120182E0
2.262339387E0,7.984662652E-1,2.117671490E0,6.859986305E0,7.223675866E0
2.264851939E0,8.032546639E-1,2.141613483E0,6.812102318E0,7.185851679E0
2.267364231E0,8.367735147E-1,2.155978680E0,6.807313919E0,7.189433689E0
2.269876262E0,8.750807047E-1,2.189497471E0,6.831255913E0,7.226736661E0
2.272388293E0,9.325415492E-1,2.223016262E0,6.874351501E0,7.284788508E0
2.274900325E0,1.004367590E0,2.227804661E0,6.936600685E0,7.354474619E0
2.277412356E0,1.085770488E0,2.242169857E0,7.008427143E0,7.438028922E0
2.279924387E0,1.162384868E0,2.246958256E0,7.085041523E0,7.523149165E0
2.282436418E0,1.224634171E0,2.256535053E0,7.118560314E0,7.567402477E0
2.284948450E0,1.277306557E0,2.256535053E0,7.142502308E0,7.598605247E0
2.287460533E0,1.310825467E0,2.266111851E0,7.123348713E0,7.589178033E0
2.289972720E0,1.329979062E0,2.266111851E0,7.099406719E0,7.570051716E0
2.292485012E0,1.325190663E0,2.280477047E0,7.051522732E0,7.528657164E0
2.294997460E0,1.301248670E0,2.280477047E0,7.003638744E0,7.479624277E0
2.297510064E0,1.291671872E0,2.266111851E0,6.950965881E0,7.424257931E0
2.300022825E0,1.243787766E0,2.266111851E0,6.907870293E0,7.375699486E0
2.302535741E0,1.195903778E0,2.266111851E0,6.850409508E0,7.313929121E0
2.305048814E0,1.138442874E0,2.270900249E0,6.802525520E0,7.261363066E0
2.307562043E0,1.061828494E0,2.323572636E0,6.769006729E0,7.235048144E0
2.310075377E0,9.421183467E-1,2.361880064E0,6.749853134E0,7.212945428E0
2.312588814E0,9.469067454E-1,2.309207439E0,6.706757545E0,7.156093079E0
2.315102356E0,9.756371975E-1,2.242169857E0,6.697180748E0,7.129615949E0
2.317615950E0,9.229647517E-1,2.208651066E0,6.711545944E0,7.125647509E0
2.320129595E0,8.846575022E-1,2.223016262E0,6.721122742E0,7.134277196E0
2.322643241E0,8.607155085E-1,2.208651066E0,6.783371925E0,7.185617955E0
2.325156887E0,8.319851160E-1,2.184709072E0,6.855197906E0,7.242851048E0
2.327670220E0,7.841010690E-1,2.184709072E0,6.922235489E0,7.301035021E0
2.330182564E0,7.218518257E-1,2.170343876E0,7.008427143E0,7.372212261E0
2.332694908E0,6.931213737E-1,2.151190281E0,7.108983517E0,7.459603441E0
2.335207252E0,6.643909812E-1,2.122459888E0,7.209539890E0,7.544780764E0
2.337719595E0,6.404489279E-1,2.103306293E0,7.338826656E0,7.661099718E0
2.340231939E0,6.212953329E-1,2.084152699E0,7.482479095E0,7.792123830E0
2.342744335E0,5.973533392E-1,2.041056871E0,7.650073051E0,7.940173919E0
2.345256783E0,5.590460896E-1,2.031480074E0,7.808090210E0,8.087380079E0
2.347769283E0,5.255272985E-1,2.017114878E0,7.999626637E0,8.266738032E0
2.350281887E0,4.920084476E-1,1.959654093E0,8.191162109E0,8.436673111E0
2.352794595E0,4.728548229E-1,1.911770105E0,8.382699013E0,8.610929065E0
2.355307356E0,4.393360019E-1,1.844732404E0,8.550292969E0,8.758057069E0
2.357820168E0,3.962403834E-1,1.792060018E0,8.674791336E0,8.866819626E0
2.360333033E0,3.483563364E-1,1.763329506E0,8.789712906E0,8.971607217E0
2.362845950E0,2.813186944E-1,1.720233917E0,8.885480881E0,9.054839337E0
2.365358918E0,1.999158412E-1,1.701080322E0,8.938153267E0,9.100781528E0
2.367871939E0,1.089361757E-1,1.715445518E0,8.942941666E0,9.106636374E0
2.370385012E0,3.232172132E-2,1.763329506E0,9.009979248E0,9.180964094E0
2.372898137E0,-1.077390742E-2,1.792060018E0,9.077016830E0,9.252233769E0
2.375411262E0,-7.302315533E-2,1.844732404E0,9.230246544E0,9.413066519E0
2.377924439E0,-1.209071875E-1,1.897404790E0,9.364321709E0,9.555379875E0
2.380437668E0,-1.879448295E-1,1.974019289E0,9.498396873E0,9.703175696E0
2.382950950E0,-2.406172752E-1,2.064998865E0,9.632472038E0,9.854269864E0
2.385464283E0,-2.837128937E-1,2.141613483E0,9.766547203E0,1.000262194E1
2.387977668E0,-3.363853395E-1,2.199074268E0,9.881468773E0,1.012879597E1
2.390491106E0,-3.459621370E-1,2.246958256E0,9.991601944E0,1.024698105E1
2.393004595E0,-3.315969408E-1,2.280477047E0,1.001554394E1,1.027723954E1
2.395518137E0,-2.980781198E-1,2.294842243E0,9.986813545E0,1.025141923E1
2.398031679E0,-2.885012925E-1,2.347514868E0,9.977236748E0,1.025374625E1
2.400545220E0,-2.932897210E-1,2.385822058E0,9.962871552E0,1.024875482E1
2.403058762E0,-3.268085420E-1,2.467224836E0,9.986813545E0,1.029225179E1
2.405572095E0,-3.507505357E-1,2.553416014E0,1.001075554E1,1.033722331E1
2.408085377E0,-3.890577853E-1,2.649184227E0,1.000117874E1,1.035341100E1
2.410598658E0,-4.465186298E-1,2.797624588E0,9.958083153E0,1.035323632E1
2.413111939E0,-4.991910458E-1,2.907757998E0,9.910199165E0,1.034003364E1
2.415625116E0,-5.470750928E-1,3.037044764E0,9.929352760E0,1.039783527E1
2.418138189E0,-5.805938840E-1,3.142389774E0,9.958083153E0,1.045825620E1
2.420651262E0,-5.949591398E-1,3.214215755E0,1.001075554E1,1.053092521E1
2.423164335E0,-5.614402890E-1,3.295618534E0,1.011131191E1,1.064964531E1
2.425677408E0,-5.422866940E-1,3.372233152E0,1.019271564E1,1.074976667E1
2.428190481E0,-5.135562420E-1,3.453635931E0,1.024538803E1,1.082401575E1
2.430703554E0,-4.704606235E-1,3.506308317E0,1.031242561E1,1.090236916E1
2.433216627E0,-4.513070285E-1,3.597288132E0,1.037946320E1,1.099442660E1
2.435729700E0,-4.369418025E-1,3.697844505E0,1.042734718E1,1.107224193E1
2.438242825E0,-4.560954273E-1,3.836708307E0,1.046086597E1,1.115159498E1
2.440756002E0,-4.513070285E-1,3.970783472E0,1.049438477E1,1.122955525E1
2.443269231E0,-4.752490520E-1,4.080916882E0,1.055184555E1,1.132347953E1
2.445782512E0,-4.800374508E-1,4.200626850E0,1.061888313E1,1.142962733E1
2.448295845E0,-4.704606235E-1,4.310760021E0,1.070507431E1,1.155000438E1
2.450809231E0,-4.129997790E-1,4.373009205E0,1.080084229E1,1.165984444E1
2.453322668E0,-3.124433160E-1,4.401739597E0,1.090139866E1,1.176067281E1
2.455836158E0,-2.118868530E-1,4.416105270E0,1.105462742E1,1.190595100E1
2.458349700E0,-9.696517140E-2,4.411316395E0,1.127010632E1,1.210307444E1
2.460863241E0,-2.035071515E-2,4.396951199E0,1.157177544E1,1.237899757E1
2.463376783E0,6.584054977E-2,4.305971622E0,1.194527054E1,1.269784292E1
2.465890325E0,6.105214357E-2,4.243722439E0,1.232834339E1,1.303844156E1
2.468403866E0,1.903390288E-1,4.124012470E0,1.278802967E1,1.343790946E1
2.470917408E0,3.196259141E-1,3.922899485E0,1.332433128E1,1.389349147E1
2.473430950E0,3.579331636E-1,3.764882088E0,1.381753635E1,1.432573782E1
2.475944491E0,4.106055796E-1,3.626018524E0,1.435383797E1,1.481044468E1
2.478458033E0,3.627215624E-1,3.515885115E0,1.486140823E1,1.527594415E1
2.480971575E0,2.765302956E-1,3.420117140E0,1.534503746E1,1.572398947E1
2.483485116E0,1.616086215E-1,3.348291159E0,1.581430054E1,1.616568194E1
2.485998658E0,6.105214357E-2,3.257311344E0,1.624525642E1,1.656871029E1
2.488512200E0,-5.386953801E-2,3.171120167E0,1.655171585E1,1.685283960E1
2.491025481E0,-1.304839998E-1,3.080140591E0,1.675282860E1,1.703412922E1
2.493538762E0,-1.927332431E-1,2.989160776E0,1.691084480E1,1.717407640E1
2.496052043E0,-2.262520641E-1,2.883816004E0,1.701140213E1,1.725559003E1
2.498565325E0,-2.693476975E-1,2.754528999E0,1.697309494E1,1.719726519E1
2.501078606E0,-4.225766063E-1,2.721010208E0,1.681028938E1,1.703432701E1
2.503591887E0,-4.560954273E-1,2.730587006E0,1.669536781E1,1.692333994E1
2.506105220E0,-4.417302012E-1,2.673126221E0,1.643679237E1,1.665859757E1
2.508618606E0,-5.087678432E-1,2.682703018E0,1.598668289E1,1.621819257E1
2.511131991E0,-5.614402890E-1,2.783259392E0,1.561318779E1,1.586925899E1
2.513645377E0,-5.758054852E-1,2.835932016E0,1.514871311E1,1.542263179E1
2.516158762E0,-6.428431273E-1,2.960430384E0,1.461241150E1,1.492313523E1
2.518672148E0,-7.242460251E-1,3.113659382E0,1.409047508E1,1.444856031E1
2.521185533E0,-7.481880188E-1,3.209427357E0,1.359248161E1,1.398627061E1
2.523698918E0,-7.625532150E-1,3.266888142E0,1.311843014E1,1.354057808E1
2.526212304E0,-8.152256608E-1,3.372233152E0,1.252466774E1,1.299630145E1
2.528725689E0,-9.062053561E-1,3.520673513E0,1.188780975E1,1.243126586E1
2.531239075E0,-9.157821536E-1,3.630806923E0,1.137066269E1,1.197135689E1
2.533752460E0,-9.445125461E-1,3.764882088E0,1.089182186E1,1.156279484E1
2.536265845E0,-1.035492182E0,3.946841478E0,1.044171238E1,1.121067166E1
2.538779231E0,-1.035492182E0,4.080916882E0,1.002033234E1,1.086890918E1
2.541292616E0,-1.035492182E0,4.219780445E0,9.637260437E0,1.057145117E1
2.543806002E0,-1.073799491E0,4.382586002E0,9.292495728E0,1.033008143E1
2.546319387E0,-1.064222693E0,4.497508049E0,8.986037254E0,1.010490050E1
2.548832460E0,-1.016338587E0,4.602852821E0,8.722675323E0,9.914850630E0
2.551345533E0,-1.054645896E0,4.727351189E0,8.507197380E0,9.789409302E0
2.553858606E0,-1.059434295E0,4.799177170E0,8.411429405E0,9.742004269E0
2.556371679E0,-1.045069098E0,4.847061157E0,8.353968620E0,9.714677709E0
2.558884752E0,-1.040280581E0,4.899733543E0,8.363545418E0,9.748767329E0
2.561397825E0,-1.006761789E0,4.885368347E0,8.397064209E0,9.766835747E0
2.563910898E0,-9.971849918E-1,4.871003151E0,8.406641006E0,9.766916741E0
2.566423970E0,-9.636662006E-1,4.851849556E0,8.478466988E0,9.815981821E0
2.568936627E0,-9.301473498E-1,4.808753967E0,8.583811760E0,9.882869681E0
2.571448970E0,-8.966285586E-1,4.756081581E0,8.713098526E0,9.967062792E0
2.573961314E0,-8.918401599E-1,4.674678802E0,8.837596893E0,1.003748572E1
2.576473658E0,-8.870517015E-1,4.626794815E0,8.981248856E0,1.014184017E1
2.578986002E0,-8.487445116E-1,4.511873245E0,9.124900818E0,1.021475317E1
2.581498398E0,-8.152256608E-1,4.406527996E0,9.249400139E0,1.027781518E1
2.584010845E0,-7.817068696E-1,4.262876034E0,9.364321709E0,1.031860934E1
2.586523345E0,-7.098808289E-1,4.124012470E0,9.479243279E0,1.036182719E1
2.589035898E0,-6.428431273E-1,3.965995073E0,9.603741646E0,1.041029384E1
2.591548502E0,-5.805938840E-1,3.788824081E0,9.737816811E0,1.046505391E1
2.594061158E0,-5.183446407E-1,3.626018524E0,9.895833969E0,1.055197713E1
2.596573918E0,-4.321534038E-1,3.458424330E0,1.008736992E1,1.067251082E1
2.599086783E0,-3.842693865E-1,3.286041737E0,1.027890682E1,1.079822479E1
2.601599804E0,-3.699041605E-1,3.161543369E0,1.045128918E1,1.092527487E1
2.604112929E0,-3.507505357E-1,3.051409960E0,1.059015274E1,1.102657988E1
2.606626158E0,-3.699041605E-1,2.965218782E0,1.071943951E1,1.112815056E1
2.609139439E0,-3.986345828E-1,2.883816004E0,1.084393787E1,1.122792469E1
2.611652773E0,-4.225766063E-1,2.811989784E0,1.092534065E1,1.128932797E1
2.614166106E0,-4.321534038E-1,2.730587006E0,1.100674343E1,1.134862383E1
2.616678970E0,-4.513070285E-1,2.639607430E0,1.107378101E1,1.139297289E1
2.619191158E0,-4.656722248E-1,2.567781210E0,1.108335781E1,1.138644683E1
2.621703345E0,-4.800374508E-1,2.481590033E0,1.111208820E1,1.139593038E1
2.624215533E0,-4.896142483E-1,2.395398855E0,1.110729980E1,1.137320389E1
2.626727773E0,-4.991910458E-1,2.318784237E0,1.101153183E1,1.126409274E1
2.629240064E0,-5.566518903E-1,2.280477047E0,1.093491745E1,1.118404473E1
2.631752460E0,-5.901707411E-1,2.242169857E0,1.077211189E1,1.101880310E1
2.634264960E0,-6.524199843E-1,2.203862667E0,1.063324833E1,1.087881577E1
2.636777616E0,-7.003039718E-1,2.184709072E0,1.046086597E1,1.070948628E1
2.639290429E0,-7.338228226E-1,2.170343876E0,1.026933002E1,1.052178823E1
2.641803398E0,-7.864952683E-1,2.151190281E0,1.007779312E1,1.033480085E1
2.644316523E0,-8.343793154E-1,2.165555477E0,9.895833969E0,1.016431745E1
2.646829804E0,-8.726865053E-1,2.151190281E0,9.685144424E0,9.959479097E0
2.649343241E0,-9.301473498E-1,2.175132275E0,9.436147690E0,9.728168262E0
2.651856835E0,-9.636662006E-1,2.175132275E0,9.211092949E0,9.513363562E0
2.654370533E0,-1.011550188E0,2.194285870E0,8.971672058E0,9.291341334E0
2.656884335E0,-1.045069098E0,2.218227863E0,8.713098526E0,9.051562859E0
2.659398241E0,-1.045069098E0,2.208651066E0,8.440159798E0,8.786728991E0
2.661912200E0,-1.054645896E0,2.232593060E0,8.205527306E0,8.568980575E0
2.664426158E0,-1.078587890E0,2.270900249E0,8.009202957E0,8.394502474E0
2.666939908E0,-1.092953086E0,2.275688648E0,7.803301811E0,8.201513545E0
2.669453293E0,-1.073799491E0,2.294842243E0,7.635707855E0,8.045084258E0
2.671966679E0,-1.040280581E0,2.299630642E0,7.468113422E0,7.883096020E0
2.674480064E0,-9.445125461E-1,2.309207439E0,7.343615055E0,7.755851019E0
2.676993450E0,-8.631097078E-1,2.309207439E0,7.238270283E0,7.646564853E0
2.679506575E0,-8.487445116E-1,2.333149672E0,7.094618320E0,7.516486130E0
2.682019700E0,-8.535329103E-1,2.352303267E0,7.022792339E0,7.455297535E0
2.684532825E0,-8.870517015E-1,2.385822058E0,7.013215542E0,7.460844446E0
2.687045950E0,-8.966285586E-1,2.395398855E0,6.946177483E0,7.402111865E0
2.689559075E0,-9.014169574E-1,2.400187254E0,6.893505096E0,7.354853085E0
2.692072200E0,-8.726865053E-1,2.395398855E0,6.840832710E0,7.300445848E0
2.694585116E0,-8.726865053E-1,2.385822058E0,6.859986305E0,7.315267646E0
2.697097981E0,-8.631097078E-1,2.381033659E0,6.850409508E0,7.303587480E0
2.699610845E0,-8.726865053E-1,2.381033659E0,6.831255913E0,7.286766112E0
2.702123710E0,-8.870517015E-1,2.371456861E0,6.840832710E0,7.294358131E0
2.704636470E0,-9.205705523E-1,2.366668463E0,6.869563103E0,7.323896980E0
2.707149231E0,-9.493009448E-1,2.366668463E0,6.927023888E0,7.381460007E0
2.709661991E0,-9.780313969E-1,2.371456861E0,6.974907875E0,7.431668246E0
2.712174335E0,-1.021126986E0,2.361880064E0,6.998850346E0,7.456881648E0
2.714686679E0,-1.049857497E0,2.337938070E0,7.037157536E0,7.489308470E0
2.717199023E0,-1.107318282E0,2.318784237E0,7.075464725E0,7.527623476E0
2.719711366E0,-1.174355984E0,2.299630642E0,7.113771915E0,7.567903536E0
2.722223710E0,-1.231816769E0,2.290053844E0,7.142502308E0,7.601122179E0
2.724736054E0,-1.284489155E0,2.237381458E0,7.176021099E0,7.625684690E0
2.727248398E0,-1.346738458E0,2.227804661E0,7.190386295E0,7.647121887E0
2.729760741E0,-1.404199243E0,2.175132275E0,7.185597897E0,7.637787183E0
2.732273085E0,-1.442506552E0,2.141613483E0,7.209539890E0,7.657989220E0
2.734785064E0,-1.476025343E0,2.122459888E0,7.228693485E0,7.677076025E0
2.737297043E0,-1.509544134E0,2.098517895E0,7.271789074E0,7.717604368E0
2.739809023E0,-1.538274646E0,2.093729496E0,7.300519466E0,7.749037138E0
2.742321002E0,-1.557428241E0,2.093729496E0,7.329249859E0,7.779922199E0
2.744832981E0,-1.567005038E0,2.093729496E0,7.353191853E0,7.804398658E0
2.747344960E0,-1.614889026E0,2.132036686E0,7.362768650E0,7.833505549E0
2.749856991E0,-1.657984734E0,2.127248287E0,7.357980251E0,7.836706708E0
2.752369127E0,-1.638831019E0,2.141613483E0,7.314884663E0,7.796140908E0
2.754881366E0,-1.624465823E0,2.132036686E0,7.276577473E0,7.754550236E0
2.757393762E0,-1.581370234E0,2.112883091E0,7.204751492E0,7.672903677E0
2.759906314E0,-1.543063045E0,2.117671490E0,7.118560314E0,7.585478037E0
2.762419075E0,-1.432929754E0,2.112883091E0,7.085041523E0,7.530961162E0
2.764932043E0,-1.413776159E0,2.122459888E0,6.998850346E0,7.448993567E0
2.767445220E0,-1.423352957E0,2.165555477E0,6.941389084E0,7.409348593E0
2.769958554E0,-1.408987641E0,2.227804661E0,6.936600685E0,7.420565265E0
2.772472043E0,-1.385045648E0,2.251746655E0,6.917447090E0,7.405389165E0
2.774985637E0,-1.308431268E0,2.261323452E0,6.864774704E0,7.345114558E0
2.777499335E0,-1.222239971E0,2.266111851E0,6.840832710E0,7.309317727E0
2.780013085E0,-1.131260276E0,2.285265446E0,6.826467514E0,7.287170006E0
2.782526887E0,-1.064222693E0,2.280477047E0,6.831255913E0,7.280055141E0
2.785040689E0,-9.780313969E-1,2.275688648E0,6.816890717E0,7.252951350E0
2.787554075E0,-8.966285586E-1,2.313995838E0,6.802525520E0,7.241054686E0
2.790067148E0,-8.726865053E-1,2.448071241E0,6.812102318E0,7.291047423E0
2.792580116E0,-9.349357486E-1,2.649184227E0,6.874351501E0,7.426236630E0
2.795092877E0,-7.960720658E-1,2.524685621E0,6.898293495E0,7.388790250E0
2.797605637E0,-6.332663298E-1,2.443282843E0,6.864774704E0,7.314081558E0
2.800118398E0,-5.710170865E-1,2.361880064E0,6.950965881E0,7.363454667E0
2.802631158E0,-5.231330991E-1,2.237381458E0,7.013215542E0,7.380022782E0
2.805143970E0,-5.039794445E-1,2.184709072E0,7.008427143E0,7.358328617E0
2.807656835E0,-5.183446407E-1,2.175132275E0,7.013215542E0,7.361051135E0
2.810169752E0,-5.327098966E-1,2.194285870E0,7.008427143E0,7.363200482E0
2.812682720E0,-5.279214978E-1,2.266111851E0,6.994061947E0,7.370947466E0
2.815195741E0,-5.135562420E-1,2.342726469E0,6.974907875E0,7.375733671E0
2.817708762E0,-5.279214978E-1,2.424129248E0,6.974907875E0,7.403002336E0
2.820221783E0,-5.470750928E-1,2.505532026E0,6.960542679E0,7.417960385E0
2.822734804E0,-5.662286878E-1,2.558204412E0,6.950965881E0,7.428388212E0
2.825247877E0,-5.470750928E-1,2.644395828E0,6.974907875E0,7.479402404E0
2.827761002E0,-6.428431273E-1,2.902969599E0,7.013215542E0,7.617458370E0
2.830274179E0,-6.955155730E-1,2.864662409E0,7.065887928E0,7.656161234E0
2.832787408E0,-6.332663298E-1,2.716221809E0,7.046734333E0,7.578611477E0
2.835300637E0,-6.236895323E-1,2.606088638E0,7.089829922E0,7.579338688E0
2.837813866E0,-6.476315856E-1,2.510320425E0,7.204751492E0,7.656995453E0
2.840327095E0,-6.667851806E-1,2.409764051E0,7.286154270E0,7.703220710E0
2.842840325E0,-6.955155730E-1,2.342726469E0,7.348403454E0,7.744103727E0
2.845353554E0,-7.194576263E-1,2.280477047E0,7.377133846E0,7.755017642E0
2.847866783E0,-7.481880188E-1,2.251746655E0,7.405864239E0,7.776694248E0
2.850380012E0,-7.912836671E-1,2.223016262E0,7.434594631E0,7.800072338E0
2.852893085E0,-8.295909166E-1,2.266111851E0,7.492055893E0,7.871110818E0
2.855406054E0,-8.295909166E-1,2.304419041E0,7.578247070E0,7.964194678E0
2.857918866E0,-8.391677141E-1,2.357091665E0,7.635707855E0,8.035180024E0
2.860431679E0,-8.056488633E-1,2.390610456E0,7.697957039E0,8.100779655E0
2.862944491E0,-7.817068696E-1,2.428917646E0,7.717110634E0,8.128007326E0
2.865457304E0,-7.769184709E-1,2.452859640E0,7.798513412E0,8.211999401E0
2.867970116E0,-7.769184709E-1,2.486378431E0,7.899069786E0,8.317510655E0
2.870482929E0,-7.625532150E-1,2.500743628E0,7.980473042E0,8.397806622E0
2.872995793E0,-7.290344238E-1,2.486378431E0,8.061875343E0,8.468022375E0
2.875508710E0,-7.003039718E-1,2.452859640E0,8.138489723E0,8.528889790E0
2.878021679E0,-6.811503768E-1,2.438494444E0,8.176796913E0,8.559803079E0
2.880534752E0,-6.524199843E-1,2.438494444E0,8.200738907E0,8.580444371E0
2.883047929E0,-6.236895323E-1,2.438494444E0,8.205527306E0,8.582885421E0
2.885561210E0,-6.141127348E-1,2.448071241E0,8.200738907E0,8.580344158E0
2.888074595E0,-6.428431273E-1,2.486378431E0,8.210315704E0,8.602593153E0
2.890588085E0,-6.667851806E-1,2.534262419E0,8.195950508E0,8.604690187E0
2.893101679E0,-6.955155730E-1,2.591723442E0,8.167220116E0,8.596758501E0
2.895615325E0,-7.290344238E-1,2.639607430E0,8.157643318E0,8.605008023E0
2.898128970E0,-7.577648163E-1,2.663549423E0,8.114547729E0,8.574064841E0
2.900642616E0,-7.864952683E-1,2.697068214E0,8.104970932E0,8.578071203E0
2.903156262E0,-8.248024583E-1,2.764105797E0,8.052298546E0,8.553367280E0
2.905669283E0,-8.487445116E-1,2.778470993E0,7.985261440E0,8.497333027E0
2.908182304E0,-8.678981066E-1,2.797624588E0,7.884704590E0,8.411213761E0
2.910695325E0,-8.774749041E-1,2.826355219E0,7.750629425E0,8.296415040E0
2.913208345E0,-8.726865053E-1,2.859874010E0,7.640496254E0,8.204733030E0
2.915721366E0,-8.726865053E-1,2.931699991E0,7.535151482E0,8.132340034E0
2.918234387E0,-8.918401599E-1,2.979583979E0,7.391499043E0,8.019199315E0
2.920747408E0,-8.726865053E-1,2.936488390E0,7.300519466E0,7.917204701E0
2.923260429E0,-8.295909166E-1,2.917334795E0,7.324461460E0,7.927597308E0
2.925773450E0,-8.343793154E-1,2.955641985E0,7.329249859E0,7.946691883E0
2.928286470E0,-8.583213091E-1,3.022679567E0,7.262212276E0,7.912839843E0
2.930799491E0,-8.535329103E-1,3.070563793E0,7.195174694E0,7.869397646E0
2.933312512E0,-9.014169574E-1,3.195062160E0,7.180809498E0,7.911068182E0
2.935825533E0,-9.205705523E-1,3.262099743E0,7.252635479E0,8.005589689E0
2.938338606E0,-7.386112213E-1,3.128024578E0,7.357980251E0,8.029318631E0
2.940851731E0,-5.997475386E-1,3.008314371E0,7.453748226E0,8.060273884E0
2.943364908E0,-5.279214978E-1,2.979583979E0,7.630919456E0,8.208992237E0
2.945878189E0,-5.135562420E-1,3.003525972E0,7.788936615E0,8.363757641E0
2.948391575E0,-5.087678432E-1,3.022679567E0,7.894281387E0,8.468477733E0
2.950905064E0,-5.039794445E-1,3.022679567E0,7.966107368E0,8.535189140E0
2.953418658E0,-5.183446407E-1,2.926911592E0,8.004414558E0,8.538509534E0
2.955932356E0,-5.039794445E-1,2.950853586E0,8.186373711E0,8.716550160E0
2.958446158E0,-4.896142483E-1,2.984372377E0,8.483255386E0,9.006210221E0
2.960960012E0,-4.896142483E-1,2.998737574E0,8.708310127E0,9.223167266E0
2.963473918E0,-4.560954273E-1,3.027467966E0,8.899846077E0,9.411739771E0
2.965987877E0,-4.704606235E-1,3.032256365E0,9.081805229E0,9.586193096E0
2.968501835E0,-5.039794445E-1,2.989160776E0,9.311649323E0,9.792644716E0
2.971015793E0,-5.087678432E-1,2.970007181E0,9.603741646E0,1.006536840E1
2.973529752E0,-5.614402890E-1,2.960430384E0,9.871891975E0,1.032151222E1
2.976043293E0,-5.853823423E-1,2.941276789E0,1.002033234E1,1.045948573E1
2.978556158E0,-6.189011335E-1,2.893392801E0,1.009694672E1,1.052155376E1
2.981069023E0,-6.284779310E-1,2.835932016E0,1.018792725E1,1.059393017E1
2.983581887E0,-6.524199843E-1,2.802412987E0,1.030763721E1,1.070170806E1
2.986094752E0,-7.003039718E-1,2.788047791E0,1.039861679E1,1.078864529E1
2.988607616E0,-7.386112213E-1,2.792836189E0,1.047523117E1,1.086627575E1
2.991120481E0,-7.817068696E-1,2.792836189E0,1.054705715E1,1.093852889E1
2.993633345E0,-8.056488633E-1,2.778470993E0,1.060930634E1,1.099665186E1
2.996146210E0,-7.912836671E-1,2.759317398E0,1.061409473E1,1.099540674E1
2.998659127E0,-7.529764175E-1,2.721010208E0,1.059494114E1,1.096465448E1
3.001172095E0,-7.146692276E-1,2.697068214E0,1.058536434E1,1.094691131E1
3.003685116E0,-6.715735793E-1,2.668337822E0,1.059015274E1,1.094177193E1
3.006198241E0,-6.189011335E-1,2.658761024E0,1.059015274E1,1.093633320E1
3.008711470E0,-5.901707411E-1,2.658761024E0,1.059494114E1,1.093938250E1
3.011224804E0,-5.614402890E-1,2.644395828E0,1.059972954E1,1.093902696E1
3.013738241E0,-5.374982953E-1,2.649184227E0,1.055184555E1,1.089259042E1
3.016251783E0,-5.087678432E-1,2.630030632E0,1.051353836E1,1.084944214E1
3.018765429E0,-4.465186298E-1,2.606088638E0,1.048959637E1,1.081770349E1
3.021279127E0,-3.794809580E-1,2.548627615E0,1.052790356E1,1.083864668E1
3.023792877E0,-3.268085420E-1,2.500743628E0,1.058057594E1,1.087699912E1
3.026306679E0,-2.741360962E-1,2.486378431E0,1.063324833E1,1.092351584E1
3.028820533E0,-2.454056740E-1,2.481590033E0,1.070986271E1,1.099634813E1
3.031334387E0,-1.975216419E-1,2.505532026E0,1.078168869E1,1.107075050E1
3.033848241E0,-1.735796183E-1,2.505532026E0,1.090618706E1,1.119163691E1
3.036362095E0,-1.304839998E-1,2.510320425E0,1.100674343E1,1.129013444E1
3.038875429E0,-6.823474914E-2,2.515108824E0,1.111687660E1,1.139804254E1
3.041388033E0,-3.950432688E-2,2.519897223E0,1.118391514E1,1.146435347E1
3.043900325E0,-2.513911761E-2,2.529474020E0,1.126052952E1,1.154116094E1
3.046412616E0,-1.077390742E-2,2.534262419E0,1.131799030E1,1.159825446E1
3.048924908E0,-1.556231081E-2,2.524685621E0,1.135629749E1,1.163356233E1
3.051437200E0,3.591302549E-3,2.529474020E0,1.134193230E1,1.162057141E1
3.053949491E0,-5.985504016E-3,2.543839216E0,1.129404831E1,1.157698929E1
3.056461835E0,3.591302549E-3,2.591723442E0,1.123179913E1,1.152694040E1
3.058974231E0,3.591302549E-3,2.620453835E0,1.117912674E1,1.148214552E1
3.061486679E0,3.591302549E-3,2.673126221E0,1.108335781E1,1.140115946E1
3.063999179E0,-1.197100850E-3,2.749740601E0,1.098280144E1,1.132179324E1
3.066511783E0,-1.077390742E-2,2.826355219E0,1.086787987E1,1.122939058E1
3.069024543E0,-2.513911761E-2,2.931699991E0,1.073380470E1,1.112699691E1
3.071537460E0,-3.950432688E-2,3.065775394E0,1.056621075E1,1.100206112E1
3.074050533E0,-8.738835901E-2,3.228580952E0,1.037946320E1,1.087035546E1
3.076563762E0,-1.448491961E-1,3.415328741E0,1.014961910E1,1.070981884E1
3.079077095E0,-1.735796183E-1,3.645172119E0,9.934141159E0,1.058322117E1
3.081590533E0,-2.310404629E-1,3.879803896E0,9.689932823E0,1.044035709E1
3.084104023E0,-2.789244950E-1,4.090493679E0,9.450512886E0,1.030155965E1
3.086617564E0,-3.076549172E-1,4.243722439E0,9.263765335E0,1.019417382E1
3.089131106E0,-3.268085420E-1,4.392162800E0,9.048286438E0,1.006326912E1
3.091644648E0,-3.268085420E-1,4.526238441E0,8.890269279E0,9.981509210E0
3.094158085E0,-3.220201433E-1,4.612429619E0,8.756194115E0,9.901976537E0
3.096671523E0,-2.932897210E-1,4.674678802E0,8.693944931E0,9.875389574E0
3.099184856E0,-2.549824715E-1,4.708197594E0,8.641272545E0,9.843969313E0
3.101698189E0,-1.640028208E-1,4.684255600E0,8.670002937E0,9.855866191E0
3.104211523E0,-1.556231081E-2,4.622006416E0,8.794501305E0,9.935111408E0
3.106724856E0,1.089361757E-1,4.607641220E0,8.986037254E0,1.009906383E1
3.109238189E0,3.387795389E-1,4.454412460E0,9.254188538E0,1.027601905E1
3.111751575E0,7.793126702E-1,4.133589268E0,9.733028412E0,1.060310004E1
3.114265012E0,1.191115379E0,3.822343111E0,1.037467480E1,1.112038398E1
3.116778502E0,1.449689150E0,3.592499733E0,1.099237823E1,1.165504321E1
3.119292043E0,1.698686123E0,3.314772367E0,1.158135223E1,1.216556493E1
3.121805637E0,2.009932280E0,3.022679567E0,1.227088261E1,1.279652216E1
3.124319335E0,2.234987259E0,2.797624588E0,1.299393082E1,1.347828288E1
3.126833085E0,2.373851061E0,2.620453835E0,1.364036560E1,1.409118593E1
3.129346887E0,2.445677042E0,2.462436438E0,1.427722359E1,1.469299298E1
3.131860741E0,2.522291422E0,2.309207439E0,1.485183144E1,1.524044914E1
3.134374595E0,2.531868219E0,2.132036686E0,1.543122864E1,1.578222907E1
3.136888450E0,2.522291422E0,1.930923700E0,1.594837570E1,1.626164530E1
3.139401835E0,2.498349428E0,1.729810715E0,1.637933159E1,1.665882644E1
3.141915012E0,2.445677042E0,1.557428241E0,1.676240540E1,1.701132427E1
3.144428189E0,2.316390038E0,1.399410844E0,1.703534317E1,1.724896897E1
3.146941366E0,2.148796082E0,1.255758762E0,1.724603271E1,1.742469222E1
3.149454543E0,1.933317900E0,1.150413871E0,1.736095428E1,1.750611047E1
3.151967720E0,1.703474522E0,1.083376288E0,1.736095428E1,1.747793647E1
3.154480898E0,1.454477549E0,1.049857497E0,1.724603271E1,1.733907005E1
3.156994127E0,1.157596469E0,1.025915384E0,1.700182533E1,1.707204137E1
3.159507408E0,8.990227580E-1,1.045069098E0,1.669536781E1,1.675218546E1
3.162020741E0,6.500257850E-1,1.069011092E0,1.624525642E1,1.629336290E1
3.164534127E0,4.153940082E-1,1.073799491E0,1.572810936E1,1.577019409E1
3.167047564E0,1.759738177E-1,1.121683478E0,1.514392471E1,1.518642803E1
3.169561054E0,-2.035071515E-2,1.179144382E0,1.446397114E1,1.451196943E1
3.172074595E0,-2.406172752E-1,1.274912357E0,1.376007557E1,1.382110625E1
3.174588189E0,-4.034229815E-1,1.380257249E0,1.304181480E1,1.312085339E1
3.177101835E0,-5.470750928E-1,1.509544134E0,1.233792019E1,1.244195681E1
3.179615481E0,-6.189011335E-1,1.624465823E0,1.170106220E1,1.182948792E1
3.182129127E0,-6.667851806E-1,1.758541107E0,1.108335781E1,1.124179210E1
3.184642773E0,-7.338228226E-1,1.930923700E0,1.051353836E1,1.071454391E1
3.187156418E0,-7.769184709E-1,2.132036686E0,9.967659950E0,1.022269180E1
3.189670064E0,-8.104372621E-1,2.342726469E0,9.507973671E0,9.825820026E0
3.192183502E0,-8.343793154E-1,2.577358246E0,9.129689217E0,9.523139690E0
3.194696939E0,-8.248024583E-1,2.802412987E0,8.842385292E0,9.312443036E0
3.197210377E0,-7.960720658E-1,3.027467966E0,8.631695747E0,9.181800722E0
3.199723606E0,-7.050924301E-1,3.185485363E0,8.483255386E0,9.089009533E0
3.202236835E0,-5.997475386E-1,3.324349165E0,8.454524994E0,9.104393849E0
3.204750064E0,-4.417302012E-1,3.405751944E0,8.444948196E0,9.116546600E0
3.207263293E0,-2.597708702E-1,3.439270735E0,8.550292969E0,9.219738280E0
3.209776523E0,-9.217676520E-2,3.468001127E0,8.713098526E0,9.378358828E0
3.212289752E0,8.978256583E-2,3.448847532E0,8.947730064E0,9.589811443E0
3.214802981E0,3.052607179E-1,3.396175146E0,9.201516151E0,9.813006125E0
3.217316210E0,5.015852451E-1,3.333925962E0,9.484031677E0,1.006546109E1
3.219829439E0,6.500257850E-1,3.276464939E0,9.814431190E0,1.036729548E1
3.222342668E0,8.128314614E-1,3.214215755E0,1.014483070E1,1.067283786E1
3.224855898E0,9.181763530E-1,3.147178173E0,1.047044277E1,1.097168857E1
3.227369127E0,9.900023937E-1,3.080140591E0,1.080563068E1,1.127958445E1
3.229882356E0,1.033097982E0,2.993949175E0,1.111208820E1,1.155463229E1
3.232395481E0,1.047463298E0,2.898181200E0,1.142333508E1,1.183170393E1
3.234908450E0,1.061828494E0,2.811989784E0,1.170585060E1,1.208559906E1
3.237421366E0,1.042674899E0,2.701856613E0,1.195484734E1,1.230063311E1
3.239934179E0,1.018732786E0,2.582146645E0,1.216074944E1,1.247353697E1
3.242446991E0,9.660604000E-1,2.495955229E0,1.233792019E1,1.262486989E1
3.244959804E0,8.607155085E-1,2.419340849E0,1.241453457E1,1.267733055E1
3.247472616E0,7.936778665E-1,2.347514868E0,1.244326496E1,1.268761575E1
3.249985429E0,7.170634270E-1,2.275688648E0,1.243368816E1,1.266055055E1
3.252498241E0,6.787561774E-1,2.203862667E0,1.240974617E1,1.262218367E1
3.255011106E0,6.596025825E-1,2.132036686E0,1.236186218E1,1.256169943E1
3.257524023E0,6.596025825E-1,2.060210466E0,1.228045940E1,1.246953190E1
3.260036991E0,6.452373862E-1,2.012326479E0,1.217990303E1,1.236186988E1
3.262550012E0,6.212953329E-1,1.974019289E0,1.206976891E1,1.224590060E1
3.265063085E0,5.829881430E-1,1.945288897E0,1.193569374E1,1.210722136E1
3.267576210E0,5.638344884E-1,1.926135302E0,1.177767658E1,1.194745045E1
3.270089387E0,5.590460896E-1,1.926135302E0,1.157656384E1,1.174901528E1
3.272602616E0,5.638344884E-1,1.921346903E0,1.138023949E1,1.155505664E1
3.275115898E0,5.686228871E-1,1.935712099E0,1.115997314E1,1.134086919E1
3.277629231E0,5.542576909E-1,1.964442492E0,1.092055225E1,1.110966685E1
3.280142616E0,5.781996846E-1,1.988384485E0,1.070507431E1,1.090351337E1
3.282656054E0,5.973533392E-1,1.993172884E0,1.050396156E1,1.070807068E1
3.285169543E0,5.877765417E-1,2.012326479E0,1.025496483E1,1.046705511E1
3.287683085E0,6.165069342E-1,2.041056871E0,1.001554394E1,1.023997629E1
3.290196679E0,6.500257850E-1,2.055422068E0,9.776124001E0,1.001098866E1
3.292710273E0,6.739677787E-1,2.103306293E0,9.536704063E0,9.789119180E0
3.295223814E0,7.074866295E-1,2.136825085E0,9.292495728E0,9.561225634E0
3.297736627E0,7.505822182E-1,2.170343876E0,9.091382027E0,9.376939445E0
3.300249335E0,7.936778665E-1,2.170343876E0,8.895057678E0,9.190341027E0
3.302762043E0,8.271966577E-1,2.189497471E0,8.670002937E0,8.980373289E0
3.305274752E0,8.702923059E-1,2.218227863E0,8.473678589E0,8.802339029E0
3.307787460E0,9.325415492E-1,2.242169857E0,8.282142639E0,8.630807964E0
3.310300168E0,9.804255962E-1,2.256535053E0,8.133701324E0,8.497663328E0
3.312812929E0,9.469067454E-1,2.323572636E0,7.985261440E0,8.370186524E0
3.315325741E0,9.038111567E-1,2.424129248E0,7.836820602E0,8.252819783E0
3.317838606E0,1.076193690E0,2.323572636E0,7.774571419E0,8.185422616E0
3.320351523E0,1.234210968E0,2.199074268E0,7.697957039E0,8.100478191E0
3.322864491E0,1.277306557E0,2.146401882E0,7.602189064E0,8.001989230E0
3.325377512E0,1.238999367E0,2.146401882E0,7.535151482E0,7.932254933E0
3.327890585E0,1.138442874E0,2.199074268E0,7.453748226E0,7.854319985E0
3.330403710E0,1.119289279E0,2.165555477E0,7.381922245E0,7.774008943E0
3.332916887E0,1.143231273E0,2.127248287E0,7.348403454E0,7.735062788E0
3.335430116E0,1.152808070E0,2.084152699E0,7.329249859E0,7.706527260E0
3.337943398E0,1.085770488E0,2.055422068E0,7.338826656E0,7.698183820E0
3.340456679E0,1.023521185E0,2.055422068E0,7.410652637E0,7.758229695E0
3.342969960E0,9.852139950E-1,2.012326479E0,7.511209488E0,7.838263356E0
3.345483241E0,9.325415492E-1,1.974019289E0,7.602189064E0,7.909466762E0
3.347996366E0,8.655039072E-1,1.916558504E0,7.678803444E0,7.961552351E0
3.350509491E0,7.984662652E-1,1.878251195E0,7.774571419E0,8.037993324E0
3.353022616E0,7.218518257E-1,1.830367208E0,7.865550995E0,8.107910127E0
3.355535741E0,6.596025825E-1,1.772906303E0,7.966107368E0,8.187621079E0
3.358048866E0,5.925649405E-1,1.705868721E0,8.028356552E0,8.228950737E0
3.360561991E0,5.207388401E-1,1.643619418E0,8.081028938E0,8.262910046E0
3.363075116E0,4.297592044E-1,1.595735431E0,8.114547729E0,8.281120057E0
3.365588241E0,3.148375154E-1,1.538274646E0,8.143278122E0,8.293273788E0
3.368101366E0,2.094926536E-1,1.480813742E0,8.157643318E0,8.293602415E0
3.370614491E0,1.328781992E-1,1.442506552E0,8.148066521E0,8.275836501E0
3.373127616E0,5.147533491E-2,1.389834046E0,8.133701324E0,8.251750458E0
3.375640741E0,-1.556231081E-2,1.346738458E0,8.085817337E0,8.197218349E0
3.378153866E0,-8.259996027E-2,1.298854470E0,8.047510147E0,8.152071225E0
3.380666991E0,-1.352723986E-1,1.255758762E0,7.975684643E0,8.075071158E0
3.383180116E0,-2.070984542E-1,1.279700756E0,7.889492989E0,7.995287575E0
3.385693241E0,-2.310404629E-1,1.255758762E0,7.808090210E0,7.911800205E0
3.388206366E0,-2.406172752E-1,1.207874775E0,7.702745438E0,7.800586223E0
3.390719491E0,-2.549824715E-1,1.212663174E0,7.592612267E0,7.693070197E0
3.393232616E0,-2.597708702E-1,1.207874775E0,7.448959827E0,7.550724792E0
3.395745741E0,-2.358288616E-1,1.212663174E0,7.334038258E0,7.437357352E0
3.398258866E0,-2.070984542E-1,1.203086376E0,7.190386295E0,7.293281955E0
3.400771991E0,-1.927332431E-1,1.198297977E0,7.032369137E0,7.136335181E0
3.403285116E0,-1.735796183E-1,1.198297977E0,6.864774704E0,6.970737383E0
3.405798241E0,-1.209071875E-1,1.203086376E0,6.654085159E0,6.763052912E0
3.408311366E0,-4.908113554E-2,1.217451572E0,6.491279125E0,6.604642456E0
3.410824491E0,4.189852998E-2,1.212663174E0,6.342838764E0,6.457856537E0
3.413337616E0,1.376665980E-1,1.236605167E0,6.213551998E0,6.336905622E0
3.415850741E0,2.621650994E-1,1.227028370E0,6.117784023E0,6.245126941E0
3.418363918E0,3.722983599E-1,1.246181965E0,6.045958042E0,6.184269092E0
3.420877095E0,4.680664241E-1,1.270123959E0,5.964554787E0,6.116225540E0
3.423390273E0,5.446808934E-1,1.322796464E0,5.902305603E0,6.073193492E0
3.425903450E0,6.117185354E-1,1.346738458E0,5.854421616E0,6.038390224E0
3.428416627E0,7.649474144E-1,1.337161660E0,5.873575211E0,6.072234482E0
3.430929804E0,8.750807047E-1,1.346738458E0,5.887940407E0,6.103057672E0
3.433442877E0,9.421183467E-1,1.365892053E0,5.887940407E0,6.117278015E0
3.435955689E0,9.900023937E-1,1.380257249E0,5.907094002E0,6.146460311E0
3.438468502E0,1.037886381E0,1.408987641E0,5.935824394E0,6.188413816E0
3.440981314E0,1.080982089E0,1.413776159E0,5.959766388E0,6.219815166E0
3.443494127E0,1.109712481E0,1.447294950E0,6.012439251E0,6.282957123E0
3.446006939E0,1.119289279E0,1.476025343E0,6.074688435E0,6.350850249E0
3.448519700E0,1.138442874E0,1.495178938E0,6.132149220E0,6.413646879E0
3.451032460E0,1.133654475E0,1.499967337E0,6.213551998E0,6.491787344E0
3.453545168E0,1.124077678E0,1.523909330E0,6.280589581E0,6.559851809E0
3.456057825E0,1.076193690E0,1.519120932E0,6.371569157E0,6.637982734E0
3.458570481E0,1.037886381E0,1.528697729E0,6.462548733E0,6.721507347E0
3.461083137E0,9.900023937E-1,1.533486247E0,6.567893982E0,6.816811290E0
3.463595793E0,9.325415492E-1,1.528697729E0,6.644508362E0,6.881572630E0
3.466108502E0,8.798691034E-1,1.533486247E0,6.668450356E0,6.898839022E0
3.468621262E0,8.176198602E-1,1.538274646E0,6.692392349E0,6.915410796E0
3.471134075E0,7.362170219E-1,1.557428241E0,6.663661957E0,6.882731210E0
3.473646939E0,6.739677787E-1,1.547851443E0,6.625354767E0,6.837060951E0
3.476159908E0,6.069301367E-1,1.533486247E0,6.582259178E0,6.785726206E0
3.478672981E0,5.351040959E-1,1.543063045E0,6.529586792E0,6.730741685E0
3.481186158E0,4.776432514E-1,1.528697729E0,6.486490726E0,6.681288930E0
3.483699387E0,4.201824069E-1,1.514332533E0,6.452971935E0,6.641581368E0
3.486212668E0,3.675099611E-1,1.523909330E0,6.429029942E0,6.617385376E0
3.488726002E0,3.244143426E-1,1.543063045E0,6.424241543E0,6.614920077E0
3.491239387E0,2.717418969E-1,1.567005038E0,6.409876347E0,6.604230707E0
3.493752773E0,2.430114746E-1,1.590947032E0,6.361992359E0,6.562401528E0
3.496266158E0,2.286462635E-1,1.619677424E0,6.352415562E0,6.559635473E0
3.498779543E0,1.951274425E-1,1.643619418E0,6.314108372E0,6.527443913E0
3.501292929E0,1.807622313E-1,1.667561531E0,6.271012783E0,6.491458832E0
3.503806262E0,1.663970202E-1,1.677138329E0,6.232705593E0,6.456554805E0
3.506319439E0,1.568202078E-1,1.691503525E0,6.199186802E0,6.427728507E0
3.508832564E0,1.807622313E-1,1.691503525E0,6.184821606E0,6.414505238E0
3.511345585E0,2.190694511E-1,1.725022316E0,6.160879612E0,6.401572542E0
3.513858606E0,2.525882721E-1,1.720233917E0,6.165668011E0,6.406127347E0
3.516371627E0,3.052607179E-1,1.729810715E0,6.194398403E0,6.438633457E0
3.518884648E0,3.579331636E-1,1.753752708E0,6.203975201E0,6.457017346E0
3.521397668E0,4.297592044E-1,1.772906303E0,6.237493992E0,6.498786120E0
3.523910741E0,4.920084476E-1,1.801636815E0,6.271012783E0,6.543207841E0
3.526423866E0,5.494692922E-1,1.806425214E0,6.333261967E0,6.608728750E0
3.528937043E0,5.925649405E-1,1.820790410E0,6.409876347E0,6.689762754E0
3.531450273E0,6.643909812E-1,1.839944005E0,6.543951988E0,6.830089087E0
3.533963554E0,7.122750282E-1,1.844732404E0,6.630143166E0,6.918755073E0
3.536476887E0,7.745242715E-1,1.820790410E0,6.735487938E0,7.020111347E0
3.538990325E0,8.128314614E-1,1.835155606E0,6.836044312E0,7.124604755E0
3.541503814E0,8.271966577E-1,1.830367208E0,6.936600685E0,7.221559907E0
3.544017356E0,8.463503122E-1,1.811213613E0,6.998850346E0,7.278784910E0
3.546531002E0,8.463503122E-1,1.811213613E0,7.027580738E0,7.306414622E0
3.549044700E0,8.367735147E-1,1.782483220E0,7.080253124E0,7.348974122E0
3.551558450E0,8.271966577E-1,1.758541107E0,7.171232700E0,7.429892299E0
3.554072200E0,8.319851160E-1,1.734599113E0,7.295731068E0,7.545112665E0
3.556585950E0,8.367735147E-1,1.691503525E0,7.410652637E0,7.647165920E0
3.559099700E0,8.176198602E-1,1.677138329E0,7.501632690E0,7.730186817E0
3.561613450E0,7.793126702E-1,1.657984734E0,7.602189064E0,7.819815866E0
3.564127043E0,6.979097724E-1,1.662773132E0,7.697957039E0,7.906354097E0
3.566640481E0,6.165069342E-1,1.638831019E0,7.731475830E0,7.927267273E0
3.569153762E0,5.542576909E-1,1.629254222E0,7.793725014E0,7.981467315E0
3.571667043E0,4.728548229E-1,1.590947032E0,7.865550995E0,8.038755911E0
3.574180325E0,4.201824069E-1,1.552639842E0,7.942165375E0,8.103408824E0
3.576693606E0,3.435679376E-1,1.528697729E0,7.994838238E0,8.146925440E0
3.579206887E0,2.573766708E-1,1.523909330E0,8.076240540E0,8.222785638E0
3.581720168E0,2.047042400E-1,1.504755735E0,8.157643318E0,8.297791161E0
3.584233450E0,1.616086215E-1,1.471236944E0,8.234258652E0,8.366222029E0
3.586746731E0,1.185129806E-1,1.456871748E0,8.296507835E0,8.424284117E0
3.589260012E0,7.541735470E-2,1.447294950E0,8.358757019E0,8.483464467E0
3.591773293E0,1.795651205E-2,1.437718153E0,8.440159798E0,8.561755272E0
3.594286575E0,-2.035071515E-2,1.452083349E0,8.507197380E0,8.630258830E0
3.596799595E0,-4.908113554E-2,1.432929754E0,8.593388557E0,8.712176739E0
3.599312512E0,-7.781155407E-2,1.423352957E0,8.660426140E0,8.776956716E0
3.601825429E0,-1.017535701E-1,1.442506552E0,8.741828918E0,8.860629311E0
3.604338345E0,-1.161187813E-1,1.466448545E0,8.823231697E0,8.945019424E0
3.606851262E0,-1.544260085E-1,1.495178938E0,8.952518463E0,9.077829822E0
3.609364179E0,-1.927332431E-1,1.547851443E0,9.077016830E0,9.210061060E0
3.611877095E0,-2.166752517E-1,1.562216640E0,9.225458145E0,9.359302697E0
3.614390064E0,-2.645592988E-1,1.586158633E0,9.364321709E0,9.501389998E0
3.616903085E0,-2.980781198E-1,1.605312228E0,9.503185272E0,9.642427507E0
3.619416158E0,-3.076549172E-1,1.610100627E0,9.656414032E0,9.794560099E0
3.621929283E0,-3.172317147E-1,1.638831019E0,9.814431190E0,9.955373557E0
3.624442460E0,-3.220201433E-1,1.662773132E0,9.953294754E0,1.009636508E1
3.626955689E0,-3.459621370E-1,1.705868721E0,1.009215832E1,1.024115899E1
3.629468970E0,-3.890577853E-1,1.748964310E0,1.021186924E1,1.036785974E1
3.631982304E0,-4.513070285E-1,1.792060018E0,1.031242561E1,1.047670173E1
3.634495689E0,-4.991910458E-1,1.811213613E0,1.039861679E1,1.056697296E1
3.637009127E0,-5.374982953E-1,1.830367208E0,1.048480797E1,1.065693890E1
3.639522616E0,-5.949591398E-1,1.854309201E0,1.054226875E1,1.072062822E1
3.642036158E0,-6.428431273E-1,1.892616391E0,1.059494114E1,1.078183759E1
3.644549752E0,-6.811503768E-1,1.911770105E0,1.063803673E1,1.082989641E1
3.647063398E0,-7.098808289E-1,1.945288897E0,1.066197872E1,1.086120941E1
3.649577043E0,-7.577648163E-1,2.007538080E0,1.061409473E1,1.082882374E1
3.652090689E0,-8.152256608E-1,2.055422068E0,1.058057594E1,1.080916001E1
3.654604335E0,-8.535329103E-1,2.117671490E0,1.054226875E1,1.078668074E1
3.657117981E0,-8.822633028E-1,2.213439465E0,1.051832676E1,1.078484588E1
3.659631418E0,-9.014169574E-1,2.280477047E0,1.049917316E1,1.078173294E1
3.662144335E0,-9.014169574E-1,2.361880064E0,1.048480797E1,1.078527830E1
3.664657200E0,-8.966285586E-1,2.457648039E0,1.047523117E1,1.079696461E1
3.667170064E0,-8.966285586E-1,2.591723442E0,1.041298199E1,1.076806236E1
3.669682929E0,-9.014169574E-1,2.754528999E0,1.033636761E1,1.073501178E1
3.672195793E0,-8.822633028E-1,2.917334795E0,1.027890682E1,1.072124789E1
3.674708658E0,-8.726865053E-1,3.113659382E0,1.020229244E1,1.070248698E1
3.677221418E0,-8.535329103E-1,3.319560766E0,1.010173512E1,1.066738274E1
3.679733866E0,-7.769184709E-1,3.520673513E0,1.002033234E1,1.064921614E1
3.682246210E0,-6.859387755E-1,3.659537315E0,9.934141159E0,1.060895310E1
3.684758554E0,-5.614402890E-1,3.736151695E0,9.905410767E0,1.060147193E1
3.687270898E0,-4.082113802E-1,3.788824081E0,9.958083153E0,1.066232829E1
3.689783293E0,-2.166752517E-1,3.769670486E0,1.012567711E1,1.080678956E1
3.692295741E0,-1.556231081E-2,3.688267708E0,1.038425159E1,1.101981134E1
3.694808241E0,1.951274425E-1,3.554192305E0,1.077690029E1,1.134953468E1
3.697320793E0,4.441244006E-1,3.434482336E0,1.126531792E1,1.178559728E1
3.699833398E0,6.787561774E-1,3.271676540E0,1.186386776E1,1.232541827E1
3.702346054E0,9.085995555E-1,3.118447781E0,1.257734013E1,1.298998670E1
3.704858762E0,1.095347285E0,2.960430384E0,1.336263847E1,1.373040570E1
3.707371523E0,1.248576164E0,2.816778183E0,1.417187881E1,1.450294215E1
3.709884335E0,1.392228246E0,2.668337822E0,1.504336739E1,1.534148717E1
3.712397252E0,1.473631144E0,2.515108824E0,1.591485691E1,1.617961778E1
3.714910273E0,1.502361536E0,2.376245260E0,1.676240540E1,1.699652513E1
3.717423398E0,1.487996340E0,2.232593060E0,1.752375984E1,1.772796559E1
3.719936627E0,1.435323954E0,2.060210466E0,1.823723221E1,1.840927105E1
3.722449960E0,1.377863050E0,1.887827992E0,1.885014915E1,1.899448668E1
3.724963398E0,1.301248670E0,1.691503525E0,1.934814262E1,1.946548369E1
3.727476939E0,1.205480576E0,1.528697729E0,1.974079132E1,1.983655570E1
3.729990585E0,1.066616893E0,1.375468850E0,1.995627022E1,2.003203203E1
3.732504335E0,9.325415492E-1,1.217451572E0,2.005203819E1,2.011059566E1
3.735018137E0,7.553706169E-1,1.121683478E0,1.999457741E1,2.004025659E1
3.737531991E0,5.686228871E-1,1.092953086E0,1.975515747E1,1.979353746E1
3.740045845E0,4.201824069E-1,1.073799491E0,1.947742844E1,1.951153036E1
3.742559700E0,2.908954918E-1,1.088164687E0,1.916139412E1,1.919447179E1
3.745073554E0,1.280897856E-1,1.112106681E0,1.875438118E1,1.878776202E1
3.747587408E0,-3.471592441E-2,1.159990668E0,1.825638580E1,1.829323389E1
3.750101262E0,-2.358288616E-1,1.270123959E0,1.766262436E1,1.770980320E1
3.752615116E0,-4.225766063E-1,1.418564558E0,1.700182533E1,1.706613492E1
3.755128762E0,-5.805938840E-1,1.567005038E0,1.630271721E1,1.638814152E1
3.757642095E0,-7.146692276E-1,1.734599113E0,1.561318779E1,1.572549583E1
3.760155325E0,-7.912836671E-1,1.897404790E0,1.492365742E1,1.506458846E1
3.762668554E0,-8.295909166E-1,2.045845270E0,1.430116558E1,1.447055773E1
3.765181783E0,-8.391677141E-1,2.170343876E0,1.368346119E1,1.387990292E1
3.767695064E0,-7.817068696E-1,2.285265446E0,1.315194893E1,1.337188335E1
3.770208398E0,-7.050924301E-1,2.404975653E0,1.268747330E1,1.293263476E1
3.772721783E0,-6.189011335E-1,2.524685621E0,1.228045940E1,1.255255987E1
3.775235220E0,-5.614402890E-1,2.644395828E0,1.191654015E1,1.221932787E1
3.777748710E0,-4.752490520E-1,2.754528999E0,1.166275501E1,1.199304574E1
3.780262252E0,-3.842693865E-1,2.869450808E0,1.146164227E1,1.182161809E1
3.782775845E0,-2.693476975E-1,2.941276789E0,1.128447151E1,1.166460263E1
3.785289439E0,-1.544260085E-1,3.008314371E0,1.117912674E1,1.157785288E1
3.787803033E0,-4.908113554E-2,3.070563793E0,1.109293461E1,1.151016808E1
3.790316627E0,7.541735470E-2,3.123236179E0,1.108814621E1,1.151986451E1
3.792830220E0,1.759738177E-1,3.151966572E0,1.114081860E1,1.157945159E1
3.795343710E0,2.477998734E-1,3.171120167E0,1.121743393E1,1.165968404E1
3.797857148E0,3.148375154E-1,3.147178173E0,1.127489471E1,1.171012826E1
3.800370585E0,3.579331636E-1,3.132812977E0,1.142812347E1,1.185515244E1
3.802884023E0,3.627215624E-1,3.037044764E0,1.137545109E1,1.177947772E1
3.805397460E0,4.297592044E-1,2.979583979E0,1.153346825E1,1.191987850E1
3.807910898E0,4.249708056E-1,2.907757998E0,1.179204178E1,1.215269131E1
3.810424335E0,3.962403834E-1,2.840720415E0,1.199315453E1,1.233136061E1
3.812937773E0,2.908954918E-1,2.792836189E0,1.220863342E1,1.252738138E1
3.815451262E0,1.089361757E-1,2.778470993E0,1.241932297E1,1.272679658E1
3.817964804E0,1.616086215E-1,2.558204412E0,1.259170532E1,1.284996382E1
3.820478398E0,1.376665980E-1,2.337938070E0,1.265395451E1,1.286885664E1
3.822992043E0,2.753331885E-2,2.170343876E0,1.265874290E1,1.284347782E1
3.825505741E0,-9.217676520E-2,2.045845270E0,1.269705009E1,1.286114538E1
3.828019491E0,-2.166752517E-1,1.954865694E0,1.271620369E1,1.286741172E1
3.830533293E0,-3.507505357E-1,1.873462796E0,1.269226170E1,1.283457813E1
3.833047148E0,-4.848258495E-1,1.801636815E0,1.264916611E1,1.278602184E1
3.835561054E0,-6.093243361E-1,1.696291924E0,1.257734013E1,1.270583201E1
3.838075012E0,-7.050924301E-1,1.624465823E0,1.251509094E1,1.263976051E1
3.840588970E0,-7.721300721E-1,1.552639842E0,1.240495777E1,1.252556796E1
3.843102929E0,-8.535329103E-1,1.504755735E0,1.228524780E1,1.240645485E1
3.845616887E0,-9.157821536E-1,1.476025343E0,1.217032623E1,1.229366294E1
3.848130793E0,-9.923965931E-1,1.452083349E0,1.200273132E1,1.213090913E1
3.850644231E0,-1.088164687E0,1.432929754E0,1.179204178E1,1.192852210E1
3.853157668E0,-1.121683478E0,1.432929754E0,1.155741024E1,1.169979457E1
3.855671054E0,-1.140837073E0,1.447294950E0,1.129404831E1,1.144341291E1
3.858184023E0,-1.150413871E0,1.471236944E0,1.105462742E1,1.121127903E1
3.860696887E0,-1.131260276E0,1.495178938E0,1.077690029E1,1.093877917E1
3.863209752E0,-1.126471877E0,1.538274646E0,1.048959637E1,1.066146611E1
3.865722616E0,-1.107318282E0,1.576581836E0,1.021665764E1,1.039672340E1
3.868235481E0,-1.088164687E0,1.624465823E0,9.958083153E0,1.014822209E1
3.870748345E0,-1.102529883E0,1.691503525E0,9.694721222E0,9.902745876E0
3.873261262E0,-1.059434295E0,1.725022316E0,9.426570892E0,9.641490642E0
3.875774231E0,-1.030703783E0,1.763329506E0,9.187150002E0,9.411450812E0
3.878287252E0,-9.971849918E-1,1.792060018E0,8.918999672E0,9.151743668E0
3.880800377E0,-9.397241473E-1,1.830367208E0,8.713098526E0,8.952732070E0
3.883313606E0,-8.918401599E-1,1.849520802E0,8.511985779E0,8.756141157E0
3.885826939E0,-8.295909166E-1,1.906981707E0,8.310873032E0,8.567112166E0
3.888340377E0,-7.625532150E-1,1.950077295E0,8.128912926E0,8.394254834E0
3.890853918E0,-7.194576263E-1,2.021903276E0,7.908646584E0,8.194656974E0
3.893367564E0,-6.907271743E-1,2.098517895E0,7.707533836E0,8.017914892E0
3.895881262E0,-6.093243361E-1,2.141613483E0,7.559093475E0,7.880208032E0
3.898395012E0,-5.183446407E-1,2.184709072E0,7.453748226E0,7.784600023E0
3.900908762E0,-4.465186298E-1,2.242169857E0,7.381922245E0,7.727838028E0
3.903422512E0,-3.842693865E-1,2.285265446E0,7.329249859E0,7.686872226E0
3.905935793E0,-3.124433160E-1,2.318784237E0,7.305307865E0,7.670847682E0
3.908449023E0,-2.789244950E-1,2.376245260E0,7.281365871E0,7.664374036E0
3.910962252E0,-2.549824715E-1,2.414552450E0,7.281365871E0,7.675504449E0
3.913475481E0,-2.501940727E-1,2.448071241E0,7.286154270E0,7.690493737E0
3.915988710E0,-2.214636505E-1,2.472013235E0,7.276577473E0,7.688203646E0
3.918501939E0,-2.166752517E-1,2.457648039E0,7.281365871E0,7.687995252E0
3.921015168E0,-1.879448295E-1,2.452859640E0,7.305307865E0,7.708395856E0
3.923528398E0,-1.352723986E-1,2.409764051E0,7.357980251E0,7.743715825E0
3.926041627E0,-1.065419763E-1,2.400187254E0,7.401075840E0,7.781270695E0
3.928554856E0,-6.823474914E-2,2.381033659E0,7.458536625E0,7.829670865E0
3.931068085E0,-5.865794048E-2,2.357091665E0,7.487267494E0,7.849744990E0
3.933581314E0,-9.696517140E-2,2.381033659E0,7.539939880E0,7.907554422E0
3.936094543E0,-1.400607973E-1,2.390610456E0,7.587823868E0,7.956739686E0
3.938607773E0,-1.879448295E-1,2.400187254E0,7.654861450E0,8.024532755E0
3.941121002E0,-2.693476975E-1,2.376245260E0,7.688380241E0,8.051725309E0
3.943634231E0,-3.603273630E-1,2.361880064E0,7.707533836E0,8.069348864E0
3.946147460E0,-4.369418025E-1,2.333149672E0,7.741052628E0,8.096814269E0
3.948660741E0,-5.135562420E-1,2.290053844E0,7.702745438E0,8.052352073E0
3.951174075E0,-5.997475386E-1,2.256535053E0,7.654861450E0,8.003033886E0
3.953687460E0,-7.290344238E-1,2.218227863E0,7.587823868E0,7.938960706E0
3.956200898E0,-8.152256608E-1,2.170343876E0,7.472901821E0,7.824272940E0
3.958714387E0,-9.109937549E-1,2.132036686E0,7.381922245E0,7.737458632E0
3.961227929E0,-1.045069098E0,2.103306293E0,7.262212276E0,7.632548325E0
3.963741523E0,-1.112106681E0,2.060210466E0,7.190386295E0,7.561937815E0
3.966255168E0,-1.174355984E0,2.007538080E0,7.118560314E0,7.488873217E0
3.968768866E0,-1.255758762E0,1.993172884E0,7.037157536E0,7.421000902E0
3.971282564E0,-1.327584863E0,1.983596087E0,6.955754280E0,7.353886905E0
3.973796262E0,-1.365892053E0,1.974019289E0,6.927023888E0,7.331171338E0
3.976309960E0,-1.399410844E0,1.969230890E0,6.927023888E0,7.336203442E0
3.978823658E0,-1.413776159E0,1.983596087E0,6.941389084E0,7.356378109E0
3.981337356E0,-1.423352957E0,1.997961283E0,6.960542679E0,7.380171903E0
3.983851054E0,-1.404199243E0,2.012326479E0,6.965331078E0,7.384921827E0
3.986364752E0,-1.408987641E0,2.026691675E0,6.989273548E0,7.412332295E0
3.988878293E0,-1.370680451E0,2.045845270E0,7.008427143E0,7.428478901E0
3.991391835E0,-1.327584863E0,2.060210466E0,7.061099529E0,7.474361196E0
3.993905377E0,-1.279700756E0,2.084152699E0,7.089829922E0,7.499800985E0
3.996418918E0,-1.222239971E0,2.084152699E0,7.113771915E0,7.512876538E0
3.998932460E0,-1.164779186E0,2.079364061E0,7.137713909E0,7.525119620E0
4.001445793E0,-1.107318282E0,2.112883091E0,7.152079105E0,7.539407421E0
4.003959023E0,-1.064222693E0,2.127248287E0,7.166444302E0,7.550872741E0
4.006472043E0,-1.030703783E0,2.141613483E0,7.156867504E0,7.541194274E0
4.008985064E0,-9.684545994E-1,2.160767078E0,7.137713909E0,7.520224633E0
4.011498085E0,-9.445125461E-1,2.194285870E0,7.171232700E0,7.558675338E0
4.014011106E0,-8.966285586E-1,2.208651066E0,7.166444302E0,7.552483448E0
4.016524127E0,-8.583213091E-1,2.227804661E0,7.161655903E0,7.549115468E0
4.019037200E0,-8.200140595E-1,2.246958256E0,7.132925510E0,7.523288563E0
4.021550325E0,-7.625532150E-1,2.256535053E0,7.099406719E0,7.488325154E0
4.024063554E0,-7.481880188E-1,2.285265446E0,7.065887928E0,7.463845904E0
4.026576887E0,-7.098808289E-1,2.299630642E0,7.041945934E0,7.441856920E0
4.029090325E0,-6.907271743E-1,2.294842243E0,6.979696274E0,7.379672420E0
4.031603866E0,-6.715735793E-1,2.294842243E0,6.931812286E0,7.332621193E0
4.034117512E0,-6.284779310E-1,2.309207439E0,6.907870293E0,7.310683654E0
4.036631262E0,-5.805938840E-1,2.309207439E0,6.869563103E0,7.270517552E0
4.039145064E0,-5.518634915E-1,2.323572636E0,6.879139900E0,7.281902833E0
4.041658918E0,-5.183446407E-1,2.309207439E0,6.879139900E0,7.274866729E0
4.044172773E0,-4.560954273E-1,2.304419041E0,6.879139900E0,7.269177114E0
4.046686627E0,-4.273650050E-1,2.304419041E0,6.869563103E0,7.258366565E0
4.049200012E0,-3.842693865E-1,2.328361034E0,6.888716698E0,7.281713109E0
4.051713398E0,-3.363853395E-1,2.313995838E0,6.903081894E0,7.288365487E0
4.054226731E0,-3.315969408E-1,2.304419041E0,6.941389084E0,7.321419675E0
4.056740012E0,-3.076549172E-1,2.294842243E0,6.984484673E0,7.358259211E0
4.059253293E0,-2.932897210E-1,2.299630642E0,7.003638744E0,7.377348820E0
4.061766523E0,-2.789244950E-1,2.309207439E0,7.037157536E0,7.411600640E0
4.064279648E0,-2.741360962E-1,2.304419041E0,7.065887928E0,7.437221923E0
4.066792460E0,-2.837128937E-1,2.275688648E0,7.099406719E0,7.460618446E0
4.069305273E0,-3.076549172E-1,2.270900249E0,7.108983517E0,7.469222592E0
4.071818085E0,-3.268085420E-1,2.270900249E0,7.147290707E0,7.506500930E0
4.074330845E0,-3.507505357E-1,2.275688648E0,7.142502308E0,7.504473598E0
4.076843189E0,-4.034229815E-1,2.256535053E0,7.147290707E0,7.505895349E0
4.079355533E0,-4.465186298E-1,2.227804661E0,7.152079105E0,7.504313961E0
4.081867877E0,-4.560954273E-1,2.189497471E0,7.176021099E0,7.516462002E0
4.084380220E0,-4.656722248E-1,2.179920673E0,7.223905087E0,7.560007240E0
4.086892616E0,-4.704606235E-1,2.146401882E0,7.238270283E0,7.564451793E0
4.089405064E0,-4.896142483E-1,2.136825085E0,7.238270283E0,7.562955787E0
4.091917616E0,-4.991910458E-1,2.136825085E0,7.262212276E0,7.586497235E0
4.094430273E0,-5.135562420E-1,2.155978680E0,7.257423878E0,7.588292655E0
4.096943085E0,-5.087678432E-1,2.160767078E0,7.295731068E0,7.625972128E0
4.099456054E0,-4.800374508E-1,2.175132275E0,7.396287441E0,7.724422586E0
4.101969179E0,-4.417302012E-1,2.199074268E0,7.501632690E0,7.829785836E0
4.104482512E0,-4.129997790E-1,2.199074268E0,7.616554260E0,7.938412641E0
4.106996002E0,-3.746925592E-1,2.184709072E0,7.697957039E0,8.010735972E0
4.109509648E0,-3.651157618E-1,2.199074268E0,7.755417824E0,8.069432618E0
4.112023450E0,-3.411737382E-1,2.227804661E0,7.798513412E0,8.117655115E0
4.114537356E0,-3.172317147E-1,2.208651066E0,7.812878609E0,8.125259851E0
4.117051314E0,-3.172317147E-1,2.223016262E0,7.803301811E0,8.119972686E0
4.119565325E0,-3.124433160E-1,2.227804661E0,7.803301811E0,8.121099285E0
4.122079335E0,-3.076549172E-1,2.227804661E0,7.784148216E0,8.102513722E0
4.124593345E0,-3.172317147E-1,2.218227863E0,7.779359818E0,8.095653771E0
4.127107148E0,-3.076549172E-1,2.218227863E0,7.736264229E0,8.053879228E0
4.129620481E0,-3.124433160E-1,2.227804661E0,7.712322235E0,8.033719480E0
4.132133658E0,-3.172317147E-1,2.246958256E0,7.688380241E0,8.016273954E0
4.134646835E0,-3.172317147E-1,2.275688648E0,7.645284653E0,7.983092897E0
4.137160012E0,-3.363853395E-1,2.280477047E0,7.645284653E0,7.985243145E0
4.139673189E0,-3.315969408E-1,2.299630642E0,7.630919456E0,7.976790669E0
4.142185950E0,-3.268085420E-1,2.304419041E0,7.650073051E0,7.996297182E0
4.144698710E0,-3.363853395E-1,2.290053844E0,7.664438248E0,8.006317216E0
4.147211470E0,-3.124433160E-1,2.294842243E0,7.669226646E0,8.011301960E0
4.149724231E0,-2.645592988E-1,2.299630642E0,7.683591843E0,8.024704126E0
4.152236991E0,-2.166752517E-1,2.280477047E0,7.721899033E0,8.054517266E0
4.154749700E0,-1.975216419E-1,2.285265446E0,7.750629425E0,8.082927034E0
4.157262304E0,-1.640028208E-1,2.261323452E0,7.788936615E0,8.112213895E0
4.159774856E0,-1.496376097E-1,2.270900249E0,7.808090210E0,8.132997730E0
4.162287408E0,-1.400607973E-1,2.275688648E0,7.827243805E0,8.152553062E0
4.164799960E0,-1.352723986E-1,2.261323452E0,7.870339394E0,8.189879398E0
4.167312564E0,-1.496376097E-1,2.246958256E0,7.961318970E0,8.273681923E0
4.169825220E0,-1.400607973E-1,2.237381458E0,8.047510147E0,8.353915991E0
4.172337981E0,-1.352723986E-1,2.227804661E0,8.172008514E0,8.471312495E0
4.174850845E0,-1.448491961E-1,2.213439465E0,8.325238228E0,8.615676822E0
4.177363814E0,-1.352723986E-1,2.213439465E0,8.483255386E0,8.768308550E0
4.179876887E0,-1.065419763E-1,2.223016262E0,8.646060944E0,8.927906940E0
4.182390064E0,-1.161187813E-1,2.232593060E0,8.789712906E0,9.069564946E0
4.184903345E0,-1.065419763E-1,2.227804661E0,8.914211273E0,9.188994908E0
4.187416731E0,-9.696517140E-2,2.227804661E0,9.019556046E0,9.291119798E0
4.189930220E0,-1.161187813E-1,2.227804661E0,9.100958824E0,9.370381460E0
4.192443762E0,-1.400607973E-1,2.194285870E0,9.187150002E0,9.446598999E0
4.194957356E0,-1.496376097E-1,2.184709072E0,9.282918930E0,9.537710889E0
4.197471002E0,-1.975216419E-1,2.175132275E0,9.393052101E0,9.643632251E0
4.199984648E0,-2.262520641E-1,2.165555477E0,9.479243279E0,9.726092414E0
4.202498293E0,-2.406172752E-1,2.175132275E0,9.536704063E0,9.784570582E0
4.205011939E0,-2.789244950E-1,2.160767078E0,9.618106842E0,9.861779376E0
4.207525064E0,-3.411737382E-1,2.160767078E0,9.675567627E0,9.919774332E0
4.210038085E0,-3.794809580E-1,2.160767078E0,9.737816811E0,9.981883410E0
4.212550950E0,-3.986345828E-1,2.151190281E0,9.790489197E0,1.003195932E1
4.215063814E0,-3.986345828E-1,2.151190281E0,9.838373184E0,1.007869615E1
4.217576679E0,-4.129997790E-1,2.132036686E0,9.891045570E0,1.012664464E1
4.220089543E0,-3.890577853E-1,2.132036686E0,9.962871552E0,1.019586955E1
4.222602408E0,-3.842693865E-1,2.122459888E0,1.001554394E1,1.024517542E1
