"Time (s)","Acceleration x (m/s^2)","Acceleration y (m/s^2)","Acceleration z (m/s^2)","Absolute acceleration (m/s^2)"
2.393699500E-2,-2.693476975E-1,3.118447781E0,9.886257172E0,1.036992505E1
2.643751600E-2,-5.997475386E-1,3.377021551E0,1.024059963E1,1.079971539E1
2.893902600E-2,-7.577648163E-1,3.458424330E0,1.035073280E1,1.093949615E1
3.144194300E-2,-8.918401599E-1,3.501519918E0,1.039861679E1,1.100850815E1
3.394663000E-2,-9.684545994E-1,3.501519918E0,1.036988640E1,1.098786103E1
3.645340100E-2,-1.030703783E0,3.487154722E0,1.031242561E1,1.093474830E1
3.896241200E-2,-1.083376288E0,3.472789526E0,1.025496483E1,1.088109714E1
4.147376600E-2,-1.049857497E0,3.424905539E0,1.019271564E1,1.080387111E1
4.398741200E-2,-9.397241473E-1,3.338714361E0,1.010652351E1,1.068512576E1
4.650324500E-2,-7.769184709E-1,3.281253338E0,9.996390343E0,1.054978889E1
4.902110900E-2,-6.189011335E-1,3.199850559E0,9.862315178E0,1.038688321E1
5.154074500E-2,-4.369418025E-1,3.123236179E0,9.704298019E0,1.020386801E1
5.406183900E-2,-2.932897210E-1,3.017891169E0,9.584588051E0,1.005276151E1
5.658402600E-2,-1.687912196E-1,2.936488390E0,9.464878082E0,9.911375871E0
5.910689100E-2,-7.781155407E-2,2.864662409E0,9.407417297E0,9.834218096E0
6.163006800E-2,-5.386953801E-2,2.788047791E0,9.388263702E0,9.793651401E0
6.415084900E-2,-5.865794048E-2,2.759317398E0,9.416994095E0,9.813106085E0
6.666407800E-2,-1.209071875E-1,2.692279816E0,9.512762070E0,9.887144752E0
6.917730700E-2,-1.687912196E-1,2.673126221E0,9.632472038E0,9.997930378E0
7.169043200E-2,-2.262520641E-1,2.644395828E0,9.747393608E0,1.010226219E1
7.420355700E-2,-2.789244950E-1,2.653972626E0,9.891045570E0,1.024471337E1
7.671663000E-2,-3.124433160E-1,2.663549423E0,1.002512074E1,1.037762796E1
7.922939100E-2,-3.315969408E-1,2.649184227E0,1.012567711E1,1.047174630E1
8.174215100E-2,-3.363853395E-1,2.644395828E0,1.019271564E1,1.053553210E1
8.425491200E-2,-3.268085420E-1,2.630030632E0,1.024538803E1,1.058261975E1
8.676772400E-2,-2.837128937E-1,2.620453835E0,1.028848362E1,1.062074228E1
8.928058900E-2,-2.262520641E-1,2.572569609E0,1.029806042E1,1.061693707E1
9.179350500E-2,-1.879448295E-1,2.562992811E0,1.025975323E1,1.057670987E1
9.430647400E-2,-1.256955862E-1,2.519897223E0,1.021665764E1,1.052358184E1
9.681954700E-2,-5.865794048E-2,2.472013235E0,1.018792725E1,1.048370887E1
9.933272400E-2,-3.950432688E-2,2.462436438E0,1.014004230E1,1.043482687E1
1.018459530E-1,-3.471592441E-2,2.443282843E0,1.011131191E1,1.040237785E1
1.043592340E-1,-3.471592441E-2,2.414552450E0,1.009215832E1,1.037703851E1
1.068725680E-1,-4.908113554E-2,2.395398855E0,1.003469753E1,1.031675817E1
1.093859530E-1,-8.259996027E-2,2.385822058E0,1.000596714E1,1.028680456E1
1.118993910E-1,-1.017535701E-1,2.385822058E0,9.962871552E0,1.024506272E1
1.144128800E-1,-1.161187813E-1,2.357091665E0,9.919775963E0,1.019663277E1
1.169264220E-1,-1.256955862E-1,2.352303267E0,9.862315178E0,1.013974313E1
1.194400160E-1,-1.352723986E-1,2.352303267E0,9.914987564E0,1.019110434E1
1.219536620E-1,-1.496376097E-1,2.381033659E0,9.943717957E0,1.022591020E1
1.244673590E-1,-1.209071875E-1,2.395398855E0,9.934141159E0,1.021957508E1
1.269811090E-1,-1.017535701E-1,2.381033659E0,9.891045570E0,1.017410721E1
1.294949120E-1,-9.696517140E-2,2.376245260E0,9.838373184E0,1.012173556E1
1.320087140E-1,-7.781155407E-2,2.381033659E0,9.776124001E0,1.006220534E1
1.345225160E-1,-8.738835901E-2,2.371456861E0,9.713874817E0,9.999540406E0
1.370363180E-1,-8.738835901E-2,2.352303267E0,9.642048836E0,9.925224085E0
1.395498070E-1,-9.696517140E-2,2.323572636E0,9.546280861E0,9.825470488E0
1.420631410E-1,-1.161187813E-1,2.309207439E0,9.484031677E0,9.761802058E0
1.445764740E-1,-1.304839998E-1,2.280477047E0,9.421782494E0,9.694719542E0
1.470898070E-1,-1.400607973E-1,2.270900249E0,9.340379715E0,9.613495628E0
1.496031410E-1,-1.304839998E-1,2.251746655E0,9.273342133E0,9.543702813E0
1.521164740E-1,-1.209071875E-1,2.246958256E0,9.239823341E0,9.509877777E0
1.546298070E-1,-1.113303825E-1,2.261323452E0,9.206304550E0,9.480612938E0
1.571422550E-1,-1.161187813E-1,2.275688648E0,9.153631210E0,9.432985038E0
1.596547030E-1,-1.448491961E-1,2.318784237E0,9.124900818E0,9.416026580E0
1.621671510E-1,-1.687912196E-1,2.381033659E0,9.077016830E0,9.385629776E0
1.646796510E-1,-2.118868530E-1,2.424129248E0,9.014767647E0,9.337415830E0
1.671922550E-1,-2.406172752E-1,2.486378431E0,8.981248856E0,9.322167419E0
1.697049640E-1,-2.837128937E-1,2.524685621E0,8.962095261E0,9.315239232E0
1.722177760E-1,-3.172317147E-1,2.562992811E0,8.909422874E0,9.276172921E0
1.747307450E-1,-3.507505357E-1,2.577358246E0,8.885480881E0,9.258378473E0
1.772438700E-1,-3.794809580E-1,2.596511841E0,8.842385292E0,9.223538214E0
1.797571510E-1,-4.034229815E-1,2.610877037E0,8.804078102E0,9.191910587E0
1.822705890E-1,-4.800374508E-1,2.625242233E0,8.737040520E0,9.135546496E0
1.847841300E-1,-5.949591398E-1,2.625242233E0,8.684368134E0,9.091981249E0
1.872977760E-1,-5.422866940E-1,2.596511841E0,8.679579735E0,9.075849986E0
1.898115260E-1,-4.608838260E-1,2.596511841E0,8.713098526E0,9.103426474E0
1.923253280E-1,-3.842693865E-1,2.582146645E0,8.717886925E0,9.100367942E0
1.948391820E-1,-4.034229815E-1,2.582146645E0,8.727463722E0,9.110370707E0
1.973530890E-1,-4.465186298E-1,2.577358246E0,8.698733330E0,9.083507910E0
1.998669950E-1,-4.944026470E-1,2.567781210E0,8.622118950E0,9.009931715E0
2.023809010E-1,-5.805938840E-1,2.572569609E0,8.660426140E0,9.053075973E0
2.048940780E-1,-6.859387755E-1,2.558204412E0,8.679579735E0,9.074691521E0
2.074072550E-1,-7.577648163E-1,2.543839216E0,8.756194115E0,9.149659056E0
2.099204320E-1,-7.098808289E-1,2.543839216E0,8.804078102E0,9.191672317E0
2.124336090E-1,-6.189011335E-1,2.562992811E0,8.837596893E0,9.222531627E0
2.149467870E-1,-5.518634915E-1,2.562992811E0,8.875904083E0,9.255007226E0
2.174599640E-1,-5.470750928E-1,2.558204412E0,8.909422874E0,9.285554207E0
2.199731410E-1,-5.805938840E-1,2.562992811E0,8.928576469E0,9.307282051E0
2.224863180E-1,-6.236895323E-1,2.572569609E0,8.966883659E0,9.349444132E0
2.249994950E-1,-6.428431273E-1,2.572569609E0,9.005190849E0,9.387482299E0
2.275127240E-1,-5.997475386E-1,2.539050817E0,8.995614052E0,9.366298540E0
2.300259530E-1,-6.524199843E-1,2.539050817E0,9.086593628E0,9.457199091E0
2.325391820E-1,-7.433996201E-1,2.567781210E0,9.220669746E0,9.600359051E0
2.350524120E-1,-8.104372621E-1,2.577358246E0,9.340379715E0,9.723285314E0
2.375656410E-1,-8.391677141E-1,2.586935043E0,9.431359291E0,9.815649416E0
2.400788700E-1,-8.295909166E-1,2.567781210E0,9.460089684E0,9.837429453E0
2.425920990E-1,-7.625532150E-1,2.558204412E0,9.460089684E0,9.829506297E0
2.451052760E-1,-6.907271743E-1,2.562992811E0,9.421782494E0,9.788565857E0
2.476184530E-1,-6.524199843E-1,2.572569609E0,9.359533310E0,9.728547168E0
2.501314220E-1,-6.141127348E-1,2.543839216E0,9.249400139E0,9.612473945E0
2.526443910E-1,-6.236895323E-1,2.500743628E0,9.187150002E0,9.541825427E0
2.551573590E-1,-7.098808289E-1,2.505532026E0,9.172784805E0,9.535281989E0
2.576703280E-1,-7.481880188E-1,2.500743628E0,9.148842812E0,9.513928147E0
2.601832970E-1,-7.960720658E-1,2.491166830E0,9.167996407E0,9.533719160E0
2.626962660E-1,-7.864952683E-1,2.472013235E0,9.148842812E0,9.509508349E0
2.652091820E-1,-7.673416734E-1,2.462436438E0,9.086593628E0,9.445559285E0
2.677219950E-1,-7.960720658E-1,2.467224836E0,9.048286438E0,9.412354466E0
2.702348070E-1,-8.487445116E-1,2.467224836E0,9.024344444E0,9.393953283E0
2.727476200E-1,-8.918401599E-1,2.476801634E0,9.019556046E0,9.395866988E0
2.752604840E-1,-9.349357486E-1,2.476801634E0,8.995614052E0,9.377085014E0
2.777734010E-1,-9.828197956E-1,2.500743628E0,9.009979248E0,9.402094420E0
2.802863700E-1,-1.016338587E0,2.505532026E0,9.024344444E0,9.420691456E0
2.827993910E-1,-1.073799491E0,2.519897223E0,9.043498039E0,9.449221351E0
2.853124640E-1,-1.088164687E0,2.534262419E0,9.081805229E0,9.491352623E0
2.878256410E-1,-1.107318282E0,2.529474020E0,9.014767647E0,9.428172056E0
2.903389220E-1,-1.126471877E0,2.524685621E0,9.033921242E0,9.447471057E0
2.928522550E-1,-1.121683478E0,2.534262419E0,9.096170425E0,9.508994492E0
2.953656410E-1,-1.107318282E0,2.539050817E0,9.163208008E0,9.572738053E0
2.978790780E-1,-1.049857497E0,2.529474020E0,9.230246544E0,9.627974389E0
3.003925160E-1,-1.001973391E0,2.519897223E0,9.258976936E0,9.647926544E0
3.029059530E-1,-9.588778019E-1,2.510320425E0,9.278130531E0,9.659444157E0
3.054193910E-1,-9.540894032E-1,2.495955229E0,9.273342133E0,9.650645232E0
3.079327240E-1,-9.636662006E-1,2.476801634E0,9.302072525E0,9.674283030E0
3.104458490E-1,-9.157821536E-1,2.457648039E0,9.306860924E0,9.669351120E0
3.129589220E-1,-9.014169574E-1,2.448071241E0,9.268553734E0,9.628691170E0
3.154718910E-1,-9.062053561E-1,2.400187254E0,9.211092949E0,9.561712206E0
3.179848590E-1,-9.493009448E-1,2.366668463E0,9.172784805E0,9.520623560E0
3.204978280E-1,-1.001973391E0,2.337938070E0,9.144054413E0,9.491239972E0
3.230107970E-1,-1.030703783E0,2.299630642E0,9.110535622E0,9.452645698E0
3.255237660E-1,-1.069011092E0,2.290053844E0,9.129689217E0,9.473033121E0
3.280367340E-1,-1.083376288E0,2.270900249E0,9.105747223E0,9.446974363E0
3.305497030E-1,-1.116895080E0,2.246958256E0,9.110535622E0,9.449769063E0
3.330627240E-1,-1.131260276E0,2.223016262E0,9.134477615E0,9.468908724E0
3.355757970E-1,-1.140837073E0,2.218227863E0,9.167996407E0,9.501273714E0
3.380889220E-1,-1.159990668E0,2.203862667E0,9.177573204E0,9.509492043E0
3.406020990E-1,-1.183932781E0,2.203862667E0,9.191938400E0,9.526302485E0
3.431153800E-1,-1.203086376E0,2.218227863E0,9.201516151E0,9.541270941E0
3.456287660E-1,-1.227028370E0,2.232593060E0,9.235034943E0,9.579976032E0
3.481422550E-1,-1.246181965E0,2.232593060E0,9.254188538E0,9.600908642E0
3.506557970E-1,-1.265335560E0,2.251746655E0,9.268553734E0,9.621721540E0
3.531693910E-1,-1.284489155E0,2.270900249E0,9.282918930E0,9.642587007E0
3.556830370E-1,-1.308431268E0,2.290053844E0,9.306860924E0,9.673365456E0
3.581967340E-1,-1.313219666E0,2.299630642E0,9.316437721E0,9.685497344E0
3.607104320E-1,-1.341950059E0,2.309207439E0,9.330802917E0,9.705521730E0
3.632241300E-1,-1.337161660E0,2.328361034E0,9.335591316E0,9.714037865E0
3.657378280E-1,-1.341950059E0,2.342726469E0,9.349956512E0,9.731951708E0
3.682515260E-1,-1.341950059E0,2.357091665E0,9.335591316E0,9.721624160E0
3.707650680E-1,-1.351526856E0,2.352303267E0,9.335591316E0,9.721791025E0
3.732786090E-1,-1.351526856E0,2.352303267E0,9.311649323E0,9.698802432E0
3.757921510E-1,-1.356315255E0,2.342726469E0,9.302072525E0,9.687957042E0
3.783056930E-1,-1.356315255E0,2.337938070E0,9.282918930E0,9.668408833E0
3.808192340E-1,-1.356315255E0,2.333149672E0,9.249400139E0,9.635070388E0
3.833327760E-1,-1.370680451E0,2.347514868E0,9.211092949E0,9.603844244E0
3.858463180E-1,-1.361103654E0,2.347514868E0,9.201516151E0,9.593296029E0
3.883598590E-1,-1.361103654E0,2.347514868E0,9.177573204E0,9.570333282E0
3.908734010E-1,-1.351526856E0,2.371456861E0,9.153631210E0,9.551931576E0
3.933869430E-1,-1.356315255E0,2.390610456E0,9.115324020E0,9.520700679E0
3.959004840E-1,-1.389834046E0,2.414552450E0,9.081805229E0,9.499520432E0
3.984140260E-1,-1.385045648E0,2.424129248E0,9.038709641E0,9.460075371E0
4.009273070E-1,-1.385045648E0,2.419340849E0,9.009979248E0,9.431399029E0
4.034404840E-1,-1.361103654E0,2.414552450E0,9.019556046E0,9.435839017E0
4.059536090E-1,-1.365892053E0,2.428917646E0,9.014767647E0,9.435641884E0
4.084667340E-1,-1.365892053E0,2.428917646E0,9.019556046E0,9.440216803E0
4.109798590E-1,-1.365892053E0,2.438494444E0,8.990825653E0,9.415246262E0
4.134929840E-1,-1.375468850E0,2.438494444E0,8.995614052E0,9.421212336E0
4.160061090E-1,-1.361103654E0,2.443282843E0,9.019556046E0,9.443231728E0
4.185192340E-1,-1.356315255E0,2.448071241E0,9.033921242E0,9.457503734E0
4.210323590E-1,-1.337161660E0,2.457648039E0,9.043498039E0,9.466408610E0
4.235454840E-1,-1.337161660E0,2.462436438E0,9.062651634E0,9.485950093E0
4.260586090E-1,-1.318008065E0,2.472013235E0,9.062651634E0,9.485760346E0
4.285717340E-1,-1.313219666E0,2.491166830E0,9.077016830E0,9.503825157E0
4.310848590E-1,-1.308431268E0,2.495955229E0,9.086593628E0,9.513567609E0
4.335979840E-1,-1.303642869E0,2.505532026E0,9.091382027E0,9.520000138E0
4.361111090E-1,-1.289277673E0,2.519897223E0,9.100958824E0,9.530979511E0
4.386242870E-1,-1.298854470E0,2.515108824E0,9.100958824E0,9.531014996E0
4.411375160E-1,-1.294066072E0,2.510320425E0,9.100958824E0,9.529101067E0
4.436507970E-1,-1.303642869E0,2.510320425E0,9.081805229E0,9.512117513E0
4.461641300E-1,-1.298854470E0,2.539050817E0,9.062651634E0,9.500813472E0
4.486775160E-1,-1.308431268E0,2.553416014E0,9.048286438E0,9.492281769E0
4.511909530E-1,-1.303642869E0,2.548627615E0,9.024344444E0,9.467511822E0
4.537044430E-1,-1.308431268E0,2.548627615E0,9.033921242E0,9.477300676E0
4.562179320E-1,-1.308431268E0,2.582146645E0,9.019556046E0,9.472690480E0
4.587314220E-1,-1.308431268E0,2.577358246E0,9.005190849E0,9.457707446E0
4.612449120E-1,-1.313219666E0,2.586935043E0,8.986037254E0,9.442756184E0
4.637584010E-1,-1.294066072E0,2.606088638E0,8.962095261E0,9.422603486E0
4.662714740E-1,-1.318008065E0,2.591723442E0,8.947730064E0,9.408296815E0
4.687845470E-1,-1.313219666E0,2.601300240E0,8.962095261E0,9.423930193E0
4.712976200E-1,-1.313219666E0,2.610877037E0,8.971672058E0,9.435683564E0
4.738106930E-1,-1.318008065E0,2.610877037E0,8.981248856E0,9.445456853E0
4.763237660E-1,-1.327584863E0,2.625242233E0,8.986037254E0,9.455328862E0
4.788368390E-1,-1.346738458E0,2.649184227E0,8.995614052E0,9.473803550E0
4.813499120E-1,-1.322796464E0,2.653972626E0,9.000402451E0,9.476318138E0
4.838629840E-1,-1.327584863E0,2.653972626E0,9.009979248E0,9.486083402E0
4.863760570E-1,-1.318008065E0,2.644395828E0,9.019556046E0,9.491173047E0
4.888891820E-1,-1.298854470E0,2.644395828E0,9.029132843E0,9.497636134E0
4.914023590E-1,-1.274912357E0,2.639607430E0,9.038709641E0,9.502168219E0
4.939155890E-1,-1.250970364E0,2.634819031E0,9.043498039E0,9.502213161E0
4.964288180E-1,-1.222239971E0,2.625242233E0,9.043498039E0,9.495821403E0
4.989420470E-1,-1.198297977E0,2.606088638E0,9.067440033E0,9.510314652E0
5.014552760E-1,-1.188721180E0,2.610877037E0,9.081805229E0,9.524123223E0
5.039685570E-1,-1.155202270E0,2.591723442E0,9.096170425E0,9.528475171E0
5.064818390E-1,-1.150413871E0,2.582146645E0,9.105747223E0,9.534441035E0
5.089951200E-1,-1.155202270E0,2.591723442E0,9.124900818E0,9.555905903E0
5.115084010E-1,-1.164779186E0,2.586935043E0,9.110535622E0,9.542054432E0
5.140216820E-1,-1.174355984E0,2.582146645E0,9.105747223E0,9.537359475E0
5.165349640E-1,-1.179144382E0,2.582146645E0,9.115324020E0,9.547093524E0
5.190475160E-1,-1.174355984E0,2.577358246E0,9.144054413E0,9.572649508E0
5.215600680E-1,-1.179144382E0,2.591723442E0,9.163208008E0,9.595404779E0
5.240726200E-1,-1.212663174E0,2.606088638E0,9.187150002E0,9.626316799E0
5.265851720E-1,-1.231816769E0,2.625242233E0,9.187150002E0,9.633950098E0
5.290977240E-1,-1.246181965E0,2.649184227E0,9.211092949E0,9.665163210E0
5.316103280E-1,-1.265335560E0,2.644395828E0,9.235034943E0,9.689157536E0
5.341229840E-1,-1.279700756E0,2.639607430E0,9.254188538E0,9.707994999E0
5.366357450E-1,-1.318008065E0,2.658761024E0,9.297284126E0,9.759387664E0
5.391486090E-1,-1.327584863E0,2.644395828E0,9.316437721E0,9.775035687E0
5.416615780E-1,-1.322796464E0,2.653972626E0,9.330802917E0,9.790671288E0
5.441746510E-1,-1.318008065E0,2.673126221E0,9.354744911E0,9.818044683E0
5.466877760E-1,-1.322796464E0,2.682703018E0,9.373898506E0,9.839545679E0
5.492009530E-1,-1.313219666E0,2.668337822E0,9.354744911E0,9.816100294E0
5.517141820E-1,-1.303642869E0,2.663549423E0,9.354744911E0,9.813522946E0
5.542274640E-1,-1.279700756E0,2.663549423E0,9.349956512E0,9.805805237E0
5.567407450E-1,-1.255758762E0,2.653972626E0,9.330802917E0,9.781839492E0
5.592540260E-1,-1.236605167E0,2.658761024E0,9.292495728E0,9.744161296E0
5.617673070E-1,-1.227028370E0,2.644395828E0,9.258976936E0,9.707063502E0
5.642805890E-1,-1.207874775E0,2.653972626E0,9.211092949E0,9.661612986E0
5.667938700E-1,-1.198297977E0,2.663549423E0,9.191938400E0,9.644798864E0
5.693071510E-1,-1.203086376E0,2.663549423E0,9.148842812E0,9.604334290E0
5.718204320E-1,-1.222239971E0,2.658761024E0,9.096170425E0,9.555270647E0
5.743334530E-1,-1.236605167E0,2.663549423E0,9.057863235E0,9.522004740E0
5.768464740E-1,-1.231816769E0,2.673126221E0,9.043498039E0,9.510406570E0
5.793594950E-1,-1.250970364E0,2.692279816E0,9.024344444E0,9.500110005E0
5.818725160E-1,-1.274912357E0,2.711433411E0,9.033921242E0,9.517825679E0
5.843855370E-1,-1.284489155E0,2.721010208E0,9.009979248E0,9.499133381E0
5.868985570E-1,-1.289277673E0,2.735375404E0,8.990825653E0,9.485750442E0
5.894116300E-1,-1.294066072E0,2.740163803E0,8.986037254E0,9.483246817E0
5.919247550E-1,-1.298854470E0,2.735375404E0,8.981248856E0,9.477981459E0
5.944379320E-1,-1.279700756E0,2.764105797E0,8.990825653E0,9.492779404E0
5.969511620E-1,-1.265335560E0,2.778470993E0,9.000402451E0,9.504115919E0
5.994643910E-1,-1.265335560E0,2.783259392E0,9.014767647E0,9.519119846E0
6.019776720E-1,-1.279700756E0,2.788047791E0,9.024344444E0,9.531507601E0
6.044910050E-1,-1.274912357E0,2.807201385E0,9.043498039E0,9.554613437E0
6.070043910E-1,-1.270123959E0,2.811989784E0,9.081805229E0,9.591646764E0
6.095177760E-1,-1.284489155E0,2.797624588E0,9.105747223E0,9.612036632E0
6.120311620E-1,-1.298854470E0,2.792836189E0,9.148842812E0,9.653407777E0
6.145442870E-1,-1.265335560E0,2.807201385E0,9.182361603E0,9.684896401E0
6.170572550E-1,-1.255758762E0,2.768894196E0,9.211092949E0,9.699893734E0
6.195702240E-1,-1.265335560E0,2.773682594E0,9.244611740E0,9.734332819E0
6.220831930E-1,-1.246181965E0,2.764105797E0,9.263765335E0,9.747338023E0
6.245962140E-1,-1.250970364E0,2.759317398E0,9.297284126E0,9.778458543E0
6.271092870E-1,-1.236605167E0,2.749740601E0,9.335591316E0,9.810378736E0
6.296224120E-1,-1.260547161E0,2.735375404E0,9.383475304E0,9.854991960E0
6.321355890E-1,-1.274912357E0,2.716221809E0,9.436147690E0,9.901724378E0
6.346488700E-1,-1.284489155E0,2.725798607E0,9.469666481E0,9.937528551E0
6.371622550E-1,-1.308431268E0,2.716221809E0,9.512762070E0,9.979102940E0
6.396757450E-1,-1.289277673E0,2.711433411E0,9.570222855E0,1.003011832E1
6.421892870E-1,-1.294066072E0,2.701856613E0,9.575011253E0,1.003272030E1
6.447028800E-1,-1.298854470E0,2.697068214E0,9.575011253E0,1.003205066E1
6.472165260E-1,-1.308431268E0,2.701856613E0,9.575011253E0,1.003458330E1
6.497302240E-1,-1.308431268E0,2.697068214E0,9.584588051E0,1.004243484E1
6.522439740E-1,-1.308431268E0,2.692279816E0,9.589376450E0,1.004572067E1
6.547577760E-1,-1.298854470E0,2.701856613E0,9.584588051E0,1.004247879E1
6.572715780E-1,-1.279700756E0,2.706645012E0,9.575011253E0,1.003216835E1
6.597853800E-1,-1.274912357E0,2.716221809E0,9.570222855E0,1.002957765E1
6.622991820E-1,-1.274912357E0,2.721010208E0,9.579799652E0,1.004001292E1
6.648129840E-1,-1.265335560E0,2.730587006E0,9.560646057E0,1.002312988E1
6.673266820E-1,-1.255758762E0,2.711433411E0,9.546280861E0,1.000301352E1
6.698399120E-1,-1.260547161E0,2.706645012E0,9.531915665E0,9.988609643E0
6.723531410E-1,-1.250970364E0,2.716221809E0,9.546280861E0,1.000371261E1
6.748663700E-1,-1.241393566E0,2.735375404E0,9.546280861E0,1.000773775E1
6.773795990E-1,-1.212663174E0,2.730587006E0,9.555857658E0,1.001204639E1
6.798928280E-1,-1.212663174E0,2.740163803E0,9.565434456E0,1.002380097E1
6.824060570E-1,-1.188721180E0,2.740163803E0,9.565434456E0,1.002093269E1
6.849193390E-1,-1.174355984E0,2.744952202E0,9.555857658E0,1.001140800E1
6.874326720E-1,-1.193509579E0,2.735375404E0,9.565434456E0,1.002019361E1
6.899460570E-1,-1.193509579E0,2.744952202E0,9.555857658E0,1.001367282E1
6.924594430E-1,-1.212663174E0,2.749740601E0,9.560646057E0,1.002185504E1
6.949728280E-1,-1.227028370E0,2.749740601E0,9.570222855E0,1.003273828E1
6.974862140E-1,-1.222239971E0,2.778470993E0,9.579799652E0,1.004919564E1
6.999995990E-1,-1.246181965E0,2.778470993E0,9.546280861E0,1.002019705E1
7.025129840E-1,-1.255758762E0,2.773682594E0,9.541492462E0,1.001550416E1
7.050263700E-1,-1.241393566E0,2.768894196E0,9.527127266E0,9.998699265E0
7.075397550E-1,-1.227028370E0,2.764105797E0,9.507973671E0,9.977346481E0
7.100531410E-1,-1.212663174E0,2.773682594E0,9.479243279E0,9.950875350E0
7.125665260E-1,-1.183932781E0,2.778470993E0,9.469666481E0,9.939626811E0
7.150799120E-1,-1.140837073E0,2.768894196E0,9.469666481E0,9.931911576E0
7.175932970E-1,-1.140837073E0,2.783259392E0,9.445724487E0,9.913110166E0
7.201066820E-1,-1.136048675E0,2.783259392E0,9.421782494E0,9.889748469E0
7.226200680E-1,-1.140837073E0,2.768894196E0,9.388263702E0,9.854327965E0
7.251334530E-1,-1.112106681E0,2.778470993E0,9.359533310E0,9.826369935E0
7.276468390E-1,-1.092953086E0,2.740163803E0,9.345168114E0,9.799755670E0
7.301602240E-1,-1.121683478E0,2.754528999E0,9.335591316E0,9.797901258E0
7.326736090E-1,-1.097741485E0,2.744952202E0,9.311649323E0,9.769678196E0
7.351869950E-1,-1.097741485E0,2.730587006E0,9.292495728E0,9.747390349E0
7.377003800E-1,-1.107318282E0,2.692279816E0,9.306860924E0,9.751522170E0
7.402137660E-1,-1.112106681E0,2.682703018E0,9.297284126E0,9.740285873E0
7.427271510E-1,-1.107318282E0,2.653972626E0,9.340379715E0,9.773045467E0
7.452405890E-1,-1.097741485E0,2.639607430E0,9.373898506E0,9.800129436E0
7.477540780E-1,-1.083376288E0,2.601300240E0,9.373898506E0,9.788280764E0
7.502675680E-1,-1.088164687E0,2.606088638E0,9.402628899E0,9.817598005E0
7.527810570E-1,-1.088164687E0,2.596511841E0,9.426570892E0,9.837998522E0
7.552945470E-1,-1.102529883E0,2.591723442E0,9.455301285E0,9.865866659E0
7.578080370E-1,-1.112106681E0,2.625242233E0,9.469666481E0,9.889553140E0
7.603215260E-1,-1.126471877E0,2.644395828E0,9.484031677E0,9.910026490E0
7.628350160E-1,-1.179144382E0,2.639607430E0,9.498396873E0,9.928617830E0
7.653485050E-1,-1.318008065E0,2.677914619E0,9.507973671E0,9.965437035E0
7.678619950E-1,-1.270123959E0,2.687491417E0,9.541492462E0,9.993793243E0
7.703754840E-1,-1.212663174E0,2.687491417E0,9.546280861E0,9.991228171E0
7.728889740E-1,-1.145625472E0,2.701856613E0,9.546280861E0,9.987190053E0
7.754024640E-1,-1.054645896E0,2.701856613E0,9.565434456E0,9.995491156E0
7.779159530E-1,-1.006761789E0,2.692279816E0,9.594164848E0,1.001548496E1
7.804294430E-1,-9.588778019E-1,2.677914619E0,9.613318443E0,1.002529625E1
7.829429320E-1,-9.349357486E-1,2.687491417E0,9.627683640E0,1.003937285E1
7.854564220E-1,-8.678981066E-1,2.663549423E0,9.627683640E0,1.002696539E1
7.879699120E-1,-8.535329103E-1,2.634819031E0,9.618106842E0,1.000893446E1
7.904834010E-1,-8.631097078E-1,2.596511841E0,9.594164848E0,9.976714451E0
7.929968910E-1,-8.870517015E-1,2.567781210E0,9.584588051E0,9.962162876E0
7.955102760E-1,-8.870517015E-1,2.539050817E0,9.551069260E0,9.922528094E0
7.980236620E-1,-8.774749041E-1,2.491166830E0,9.498396873E0,9.858773633E0
8.005369430E-1,-8.822633028E-1,2.467224836E0,9.484031677E0,9.839331470E0
8.030502240E-1,-8.678981066E-1,2.467224836E0,9.479243279E0,9.833437784E0
8.055635050E-1,-8.631097078E-1,2.443282843E0,9.479243279E0,9.827036306E0
8.080767870E-1,-8.678981066E-1,2.448071241E0,9.493608475E0,9.842504854E0
8.105900680E-1,-8.726865053E-1,2.467224836E0,9.493608475E0,9.847709480E0
8.131033490E-1,-8.822633028E-1,2.476801634E0,9.488820076E0,9.846351675E0
8.156166300E-1,-9.014169574E-1,2.495955229E0,9.469666481E0,9.834476514E0
8.181299120E-1,-9.062053561E-1,2.515108824E0,9.469666481E0,9.839794907E0
8.206431930E-1,-9.301473498E-1,2.534262419E0,9.460089684E0,9.837731289E0
8.231564740E-1,-1.021126986E0,2.539050817E0,9.445724487E0,9.834184789E0
8.256697550E-1,-1.049857497E0,2.548627615E0,9.455301285E0,9.848879422E0
8.281830370E-1,-1.021126986E0,2.548627615E0,9.445724487E0,9.836661737E0
8.306963180E-1,-9.780313969E-1,2.529474020E0,9.445724487E0,9.827334090E0
8.332095990E-1,-9.109937549E-1,2.524685621E0,9.464878082E0,9.838082345E0
8.357228800E-1,-8.678981066E-1,2.529474020E0,9.479243279E0,9.849240533E0
8.382361620E-1,-8.295909166E-1,2.539050817E0,9.484031677E0,9.853012585E0
8.407494430E-1,-8.104372621E-1,2.543839216E0,9.507973671E0,9.875701992E0
8.432627240E-1,-8.008604646E-1,2.543839216E0,9.551069260E0,9.916421706E0
8.457760050E-1,-7.864952683E-1,2.543839216E0,9.565434456E0,9.929110186E0
8.482892870E-1,-7.721300721E-1,2.515108824E0,9.579799652E0,9.934511494E0
8.508025680E-1,-7.577648163E-1,2.524685621E0,9.575011253E0,9.931217725E0
8.533158490E-1,-7.529764175E-1,2.491166830E0,9.551069260E0,9.899283290E0
8.558291300E-1,-7.433996201E-1,2.481590033E0,9.517550468E0,9.863807531E0
8.583424120E-1,-7.338228226E-1,2.462436438E0,9.503185272E0,9.844420728E0
8.608556930E-1,-7.098808289E-1,2.457648039E0,9.488820076E0,9.827597423E0
8.633689740E-1,-6.715735793E-1,2.419340849E0,9.469666481E0,9.796877282E0
8.658822550E-1,-6.572083831E-1,2.419340849E0,9.464878082E0,9.791274182E0
8.683953800E-1,-6.524199843E-1,2.376245260E0,9.464878082E0,9.780394189E0
8.709084010E-1,-6.332663298E-1,2.390610456E0,9.474454880E0,9.791901749E0
8.734214220E-1,-6.332663298E-1,2.395398855E0,9.484031677E0,9.802337414E0
8.759344430E-1,-6.428431273E-1,2.404975653E0,9.498396873E0,9.819200494E0
8.784474120E-1,-6.476315856E-1,2.424129248E0,9.512762070E0,9.838113207E0
8.809603800E-1,-6.619967818E-1,2.433706045E0,9.503185272E0,9.832176523E0
8.834733490E-1,-6.859387755E-1,2.433706045E0,9.527127266E0,9.856956481E0
8.859863180E-1,-6.907271743E-1,2.467224836E0,9.507973671E0,9.847124745E0
8.884990260E-1,-6.619967818E-1,2.495955229E0,9.503185272E0,9.847769421E0
8.910117340E-1,-6.667851806E-1,2.505532026E0,9.460089684E0,9.808954584E0
8.935244430E-1,-6.572083831E-1,2.515108824E0,9.450512886E0,9.801524834E0
8.960371510E-1,-6.428431273E-1,2.534262419E0,9.436147690E0,9.791660560E0
8.985498590E-1,-6.236895323E-1,2.543839216E0,9.407417297E0,9.765224360E0
9.010622030E-1,-6.141127348E-1,2.539050817E0,9.397840500E0,9.754143713E0
9.035745470E-1,-5.949591398E-1,2.543839216E0,9.421782494E0,9.777273633E0
9.060868910E-1,-5.805938840E-1,2.539050817E0,9.407417297E0,9.761320019E0
9.085992340E-1,-5.758054852E-1,2.534262419E0,9.407417297E0,9.759791912E0
9.111115780E-1,-5.566518903E-1,2.534262419E0,9.412205696E0,9.763296749E0
9.136239220E-1,-5.422866940E-1,2.524685621E0,9.416994095E0,9.764624423E0
9.161362660E-1,-5.231330991E-1,2.524685621E0,9.416994095E0,9.763579441E0
9.186486090E-1,-5.231330991E-1,2.495955229E0,9.421782494E0,9.760811754E0
9.211609530E-1,-4.991910458E-1,2.476801634E0,9.416994095E0,9.750052093E0
9.236733490E-1,-4.848258495E-1,2.486378431E0,9.407417297E0,9.742516821E0
9.261857970E-1,-4.560954273E-1,2.467224836E0,9.397840500E0,9.727005063E0
9.286983490E-1,-4.273650050E-1,2.467224836E0,9.407417297E0,9.734954517E0
9.312110050E-1,-4.177882075E-1,2.452859640E0,9.393052101E0,9.717020900E0
9.337237660E-1,-3.842693865E-1,2.433706045E0,9.369110107E0,9.687662891E0
9.362366300E-1,-3.699041605E-1,2.433706045E0,9.354744911E0,9.673210768E0
9.387495990E-1,-3.603273630E-1,2.438494444E0,9.349956512E0,9.669424892E0
9.412626200E-1,-3.507505357E-1,2.448071241E0,9.349956512E0,9.671492415E0
9.437756930E-1,-3.315969408E-1,2.448071241E0,9.326014519E0,9.647671021E0
9.462887660E-1,-3.315969408E-1,2.462436438E0,9.335591316E0,9.660580467E0
9.488016300E-1,-3.363853395E-1,2.486378431E0,9.345168114E0,9.676125251E0
9.513144950E-1,-3.315969408E-1,2.505532026E0,9.330802917E0,9.667033172E0
9.538273590E-1,-3.220201433E-1,2.515108824E0,9.316437721E0,9.655334338E0
9.563402240E-1,-3.315969408E-1,2.515108824E0,9.297284126E0,9.637179102E0
9.588530890E-1,-3.315969408E-1,2.539050817E0,9.302072525E0,9.648071768E0
9.613659010E-1,-3.268085420E-1,2.539050817E0,9.287707329E0,9.634058870E0
9.638787140E-1,-3.028665185E-1,2.548627615E0,9.263765335E0,9.612730051E0
9.663915260E-1,-2.932897210E-1,2.567781210E0,9.258976936E0,9.612916993E0
9.689043390E-1,-2.932897210E-1,2.572569609E0,9.239823341E0,9.595752635E0
9.714171510E-1,-3.076549172E-1,2.567781210E0,9.254188538E0,9.608754205E0
9.739299640E-1,-3.076549172E-1,2.572569609E0,9.249400139E0,9.605423930E0
9.764427760E-1,-3.172317147E-1,2.567781210E0,9.239823341E0,9.595231716E0
9.789556410E-1,-3.028665185E-1,2.567781210E0,9.254188538E0,9.608602081E0
9.814685570E-1,-2.885012925E-1,2.567781210E0,9.273342133E0,9.626609354E0
9.839815260E-1,-2.837128937E-1,2.558204412E0,9.311649323E0,9.660834122E0
9.864945470E-1,-2.789244950E-1,2.558204412E0,9.349956512E0,9.697623187E0
9.890076200E-1,-2.789244950E-1,2.553416014E0,9.388263702E0,9.733305069E0
9.915207970E-1,-2.645592988E-1,2.553416014E0,9.421782494E0,9.765239901E0
9.940340780E-1,-2.454056740E-1,2.543839216E0,9.436147690E0,9.776104803E0
9.965474640E-1,-2.214636505E-1,2.572569609E0,9.431359291E0,9.778430274E0
9.990609530E-1,-1.879448295E-1,2.577358246E0,9.416994095E0,9.765135768E0
1.001574547E0,-1.592144072E-1,2.567781210E0,9.397840500E0,9.743626411E0
1.004088193E0,-1.209071875E-1,2.577358246E0,9.373898506E0,9.722518567E0
1.006601891E0,-1.017535701E-1,2.548627615E0,9.354744911E0,9.696241997E0
1.009115589E0,-8.259996027E-2,2.558204412E0,9.326014519E0,9.670872731E0
1.011628245E0,-4.908113554E-2,2.553416014E0,9.297284126E0,9.641671765E0
1.014140901E0,-4.908113554E-2,2.548627615E0,9.268553734E0,9.612699933E0
1.016653557E0,-4.429273307E-2,2.558204412E0,9.268553734E0,9.615220225E0
1.019166214E0,-4.429273307E-2,2.534262419E0,9.268553734E0,9.608877987E0
1.021678870E0,-6.344634295E-2,2.524685621E0,9.249400139E0,9.587985495E0
1.024191578E0,-8.259996027E-2,2.543839216E0,9.235034943E0,9.579342937E0
1.026704339E0,-9.217676520E-2,2.543839216E0,9.249400139E0,9.593279806E0
1.029217151E0,-1.161187813E-1,2.562992811E0,9.249400139E0,9.598636291E0
1.031730068E0,-1.400607973E-1,2.567781210E0,9.244611740E0,9.595622106E0
1.034243089E0,-1.448491961E-1,2.572569609E0,9.258976936E0,9.610814200E0
1.036756214E0,-1.352723986E-1,2.572569609E0,9.268553734E0,9.619901316E0
1.039269443E0,-1.209071875E-1,2.591723442E0,9.278130531E0,9.634072613E0
1.041782776E0,-1.448491961E-1,2.591723442E0,9.292495728E0,9.648237587E0
1.044296214E0,-1.256955862E-1,2.586935043E0,9.316437721E0,9.669748917E0
1.046809703E0,-1.161187813E-1,2.601300240E0,9.321226120E0,9.678093970E0
1.049323245E0,-1.209071875E-1,2.601300240E0,9.345168114E0,9.701213767E0
1.051836839E0,-1.065419763E-1,2.596511841E0,9.345168114E0,9.699762472E0
1.054350432E0,-1.065419763E-1,2.591723442E0,9.364321709E0,9.716938955E0
1.056864026E0,-1.161187813E-1,2.586935043E0,9.364321709E0,9.715772617E0
1.059377620E0,-1.304839998E-1,2.582146645E0,9.388263702E0,9.737761689E0
1.061891214E0,-1.209071875E-1,2.582146645E0,9.393052101E0,9.742254750E0
1.064404807E0,-1.161187813E-1,2.577358246E0,9.407417297E0,9.754781356E0
1.066918401E0,-1.113303825E-1,2.577358246E0,9.412205696E0,9.759343525E0
1.069431474E0,-1.113303825E-1,2.572569609E0,9.431359291E0,9.776555985E0
1.071944547E0,-1.256955862E-1,2.558204412E0,9.436147690E0,9.777581113E0
1.074457620E0,-1.113303825E-1,2.572569609E0,9.450512886E0,9.795034592E0
1.076970693E0,-1.017535701E-1,2.577358246E0,9.469666481E0,9.814668236E0
1.079483766E0,-1.113303825E-1,2.567781210E0,9.488820076E0,9.830747745E0
1.081996839E0,-1.209071875E-1,2.553416014E0,9.488820076E0,9.827118516E0
1.084509912E0,-1.256955862E-1,2.539050817E0,9.507973671E0,9.841958228E0
1.087022828E0,-1.304839998E-1,2.534262419E0,9.507973671E0,9.840786321E0
1.089535745E0,-1.256955862E-1,2.539050817E0,9.517550468E0,9.851210350E0
1.092048609E0,-1.448491961E-1,2.543839216E0,9.536704063E0,9.871211863E0
1.094561422E0,-1.544260085E-1,2.519897223E0,9.541492462E0,9.869843353E0
1.097074234E0,-1.544260085E-1,2.524685621E0,9.541492462E0,9.871066978E0
1.099587047E0,-1.640028208E-1,2.534262419E0,9.536704063E0,9.869047944E0
1.102099859E0,-1.831564307E-1,2.543839216E0,9.527127266E0,9.862596929E0
1.104612672E0,-2.023100406E-1,2.543839216E0,9.517550468E0,9.853720832E0
1.107125484E0,-1.975216419E-1,2.558204412E0,9.507973671E0,9.848095651E0
1.109638349E0,-2.023100406E-1,2.553416014E0,9.488820076E0,9.828457108E0
1.112151266E0,-2.118868530E-1,2.572569609E0,9.469666481E0,9.815171608E0
1.114664234E0,-2.310404629E-1,2.586935043E0,9.484031677E0,9.833232910E0
1.117177255E0,-2.310404629E-1,2.577358246E0,9.479243279E0,9.826098328E0
1.119690328E0,-2.310404629E-1,2.582146645E0,9.469666481E0,9.818118162E0
1.122203453E0,-2.358288616E-1,2.577358246E0,9.474454880E0,9.821592847E0
1.124716578E0,-2.406172752E-1,2.596511841E0,9.503185272E0,9.854455882E0
1.127229703E0,-2.549824715E-1,2.591723442E0,9.531915665E0,9.881268274E0
1.129742828E0,-2.454056740E-1,2.586935043E0,9.541492462E0,9.889010834E0
1.132255380E0,-2.693476975E-1,2.562992811E0,9.546280861E0,9.888020965E0
1.134767776E0,-2.645592988E-1,2.567781210E0,9.565434456E0,9.907624755E0
1.137280172E0,-2.501940727E-1,2.562992811E0,9.584588051E0,9.924507914E0
1.139792568E0,-2.310404629E-1,2.548627615E0,9.589376450E0,9.924969678E0
1.142305016E0,-2.310404629E-1,2.543839216E0,9.579799652E0,9.914487331E0
1.144817516E0,-2.023100406E-1,2.548627615E0,9.589376450E0,9.924342435E0
1.147330068E0,-1.831564307E-1,2.562992811E0,9.575011253E0,9.913794376E0
1.149842724E0,-1.735796183E-1,2.562992811E0,9.560646057E0,9.899748232E0
1.152355484E0,-1.640028208E-1,2.558204412E0,9.565434456E0,9.902971426E0
1.154868349E0,-1.448491961E-1,2.562992811E0,9.536704063E0,9.876165138E0
1.157381318E0,-1.448491961E-1,2.567781210E0,9.522338867E0,9.863539889E0
1.159894391E0,-1.400607973E-1,2.582146645E0,9.503185272E0,9.848737413E0
1.162407568E0,-1.640028208E-1,2.625242233E0,9.388263702E0,9.749784052E0
1.164920849E0,-1.304839998E-1,2.620453835E0,9.397840500E0,9.757213251E0
1.167434234E0,-1.400607973E-1,2.615665436E0,9.469666481E0,9.825268748E0
1.169947672E0,-1.640028208E-1,2.615665436E0,9.507973671E0,9.862563862E0
1.172461162E0,-1.735796183E-1,2.625242233E0,9.507973671E0,9.865271917E0
1.174974703E0,-1.783680320E-1,2.644395828E0,9.527127266E0,9.888923015E0
1.177488245E0,-1.879448295E-1,2.620453835E0,9.507973671E0,9.864262004E0
1.180001787E0,-1.831564307E-1,2.625242233E0,9.474454880E0,9.833144885E0
1.182515328E0,-2.166752517E-1,2.620453835E0,9.479243279E0,9.837163188E0
1.185028766E0,-2.454056740E-1,2.634819031E0,9.431359291E0,9.795561921E0
1.187541891E0,-2.501940727E-1,2.644395828E0,9.431359291E0,9.798263338E0
1.190054703E0,-2.358288616E-1,2.630030632E0,9.445724487E0,9.807873749E0
1.192567516E0,-2.358288616E-1,2.634819031E0,9.431359291E0,9.795326674E0
1.195080328E0,-2.214636505E-1,2.634819031E0,9.416994095E0,9.781160220E0
1.197593141E0,-1.975216419E-1,2.625242233E0,9.421782494E0,9.782683524E0
1.200105953E0,-1.975216419E-1,2.606088638E0,9.421782494E0,9.777560951E0
1.202618766E0,-2.023100406E-1,2.610877037E0,9.450512886E0,9.806620318E0
1.205131578E0,-2.070984542E-1,2.606088638E0,9.440936089E0,9.796216718E0
1.207644391E0,-1.927332431E-1,2.601300240E0,9.455301285E0,9.808497919E0
1.210157203E0,-1.975216419E-1,2.606088638E0,9.474454880E0,9.828326819E0
1.212670016E0,-1.975216419E-1,2.615665436E0,9.493608475E0,9.849331061E0
1.215182828E0,-2.118868530E-1,2.615665436E0,9.512762070E0,9.868092212E0
1.217695641E0,-2.310404629E-1,2.610877037E0,9.527127266E0,9.881103812E0
1.220208505E0,-2.166752517E-1,2.610877037E0,9.560646057E0,9.913101437E0
1.222721422E0,-2.454056740E-1,2.630030632E0,9.531915665E0,9.891142568E0
1.225234391E0,-2.693476975E-1,2.639607430E0,9.551069260E0,9.912769520E0
1.227747412E0,-2.932897210E-1,2.639607430E0,9.546280861E0,9.908835679E0
1.230260484E0,-2.789244950E-1,2.634819031E0,9.527127266E0,9.888691730E0
1.232773609E0,-2.932897210E-1,2.630030632E0,9.512762070E0,9.873992211E0
1.235286787E0,-2.980781198E-1,2.639607430E0,9.527127266E0,9.890527382E0
1.237800016E0,-2.932897210E-1,2.630030632E0,9.503185272E0,9.864766105E0
1.240313297E0,-2.885012925E-1,2.625242233E0,9.507973671E0,9.867962966E0
1.242826630E0,-2.980781198E-1,2.634819031E0,9.498396873E0,9.861575181E0
1.245339964E0,-2.980781198E-1,2.639607430E0,9.493608475E0,9.858244256E0
1.247853297E0,-3.124433160E-1,2.639607430E0,9.484031677E0,9.849467248E0
1.250366630E0,-3.315969408E-1,2.620453835E0,9.440936089E0,9.803469236E0
1.252879964E0,-3.411737382E-1,2.615665436E0,9.455301285E0,9.816355107E0
1.255393037E0,-3.363853395E-1,2.625242233E0,9.455301285E0,9.818746064E0
1.257905953E0,-3.507505357E-1,2.606088638E0,9.436147690E0,9.795693296E0
1.260418870E0,-3.507505357E-1,2.615665436E0,9.416994095E0,9.779801092E0
1.262931787E0,-3.507505357E-1,2.625242233E0,9.393052101E0,9.759321211E0
1.265444703E0,-3.507505357E-1,2.606088638E0,9.369110107E0,9.731132932E0
1.267957620E0,-3.699041605E-1,2.610877037E0,9.373898506E0,9.737734911E0
1.270470537E0,-3.603273630E-1,2.591723442E0,9.364321709E0,9.723033851E0
1.272983505E0,-3.651157618E-1,2.606088638E0,9.373898506E0,9.736271397E0
1.275496526E0,-3.651157618E-1,2.606088638E0,9.369110107E0,9.731661303E0
1.278009599E0,-3.746925592E-1,2.586935043E0,9.373898506E0,9.731526121E0
1.280522724E0,-3.603273630E-1,2.586935043E0,9.388263702E0,9.744822424E0
1.283035901E0,-3.555389643E-1,2.586935043E0,9.402628899E0,9.758487131E0
1.285549130E0,-3.459621370E-1,2.591723442E0,9.402628899E0,9.759413425E0
1.288062412E0,-3.603273630E-1,2.582146645E0,9.416994095E0,9.771238145E0
1.290575745E0,-3.651157618E-1,2.591723442E0,9.440936089E0,9.797020677E0
1.293089130E0,-3.746925592E-1,2.591723442E0,9.455301285E0,9.811225576E0
1.295602568E0,-4.034229815E-1,2.582146645E0,9.464878082E0,9.819070654E0
1.298116057E0,-4.177882075E-1,2.596511841E0,9.474454880E0,9.832686103E0
1.300629547E0,-4.177882075E-1,2.596511841E0,9.512762070E0,9.869602977E0
1.303143037E0,-4.369418025E-1,2.591723442E0,9.517550468E0,9.873789316E0
1.305656526E0,-4.417302012E-1,2.596511841E0,9.531915665E0,9.889105902E0
1.308169755E0,-4.321534038E-1,2.591723442E0,9.531915665E0,9.887426521E0
1.310682984E0,-4.417302012E-1,2.591723442E0,9.531915665E0,9.887849726E0
1.313196162E0,-4.465186298E-1,2.591723442E0,9.546280861E0,9.901913328E0
1.315709339E0,-4.417302012E-1,2.582146645E0,9.527127266E0,9.880726735E0
1.318222412E0,-4.321534038E-1,2.558204412E0,9.531915665E0,9.878693366E0
1.320735484E0,-4.465186298E-1,2.558204412E0,9.536704063E0,9.883952301E0
1.323248557E0,-4.417302012E-1,2.548627615E0,9.536704063E0,9.881262707E0
1.325761630E0,-4.321534038E-1,2.543839216E0,9.522338867E0,9.865739304E0
1.328274703E0,-4.273650050E-1,2.534262419E0,9.517550468E0,9.858442766E0
1.330787672E0,-4.513070285E-1,2.539050817E0,9.512762070E0,9.856119890E0
1.333300328E0,-4.656722248E-1,2.539050817E0,9.522338867E0,9.866030974E0
1.335812984E0,-4.704606235E-1,2.534262419E0,9.517550468E0,9.860404968E0
1.338325641E0,-4.752490520E-1,2.539050817E0,9.498396873E0,9.843382746E0
1.340838297E0,-4.848258495E-1,2.539050817E0,9.484031677E0,9.829989421E0
1.343350953E0,-4.752490520E-1,2.534262419E0,9.474454880E0,9.819044910E0
1.345863609E0,-4.513070285E-1,2.524685621E0,9.464878082E0,9.806203783E0
1.348376266E0,-4.417302012E-1,2.519897223E0,9.436147690E0,9.776803711E0
1.350888922E0,-4.177882075E-1,2.524685621E0,9.426570892E0,9.767744021E0
1.353401630E0,-4.273650050E-1,2.515108824E0,9.402628899E0,9.742578891E0
1.355914391E0,-4.273650050E-1,2.524685621E0,9.393052101E0,9.735815637E0
1.358427203E0,-4.417302012E-1,2.529474020E0,9.369110107E0,9.714606971E0
1.360940068E0,-4.369418025E-1,2.539050817E0,9.369110107E0,9.716888463E0
1.363453037E0,-4.225766063E-1,2.534262419E0,9.359533310E0,9.705767398E0
1.365966109E0,-4.513070285E-1,2.524685621E0,9.349956512E0,9.695328891E0
1.368479234E0,-4.513070285E-1,2.500743628E0,9.330802917E0,9.670640093E0
1.370992412E0,-4.560954273E-1,2.505532026E0,9.326014519E0,9.667484708E0
1.373505641E0,-4.848258495E-1,2.519897223E0,9.345168114E0,9.691083799E0
1.376018922E0,-5.087678432E-1,2.519897223E0,9.321226120E0,9.669228672E0
1.378532255E0,-5.231330991E-1,2.505532026E0,9.311649323E0,9.657027083E0
1.381045589E0,-5.614402890E-1,2.500743628E0,9.326014519E0,9.671787875E0
1.383558922E0,-5.853823423E-1,2.505532026E0,9.335591316E0,9.683678456E0
1.386072255E0,-5.997475386E-1,2.491166830E0,9.340379715E0,9.685468626E0
1.388585589E0,-5.997475386E-1,2.495955229E0,9.349956512E0,9.695936076E0
1.391098922E0,-6.093243361E-1,2.467224836E0,9.364321709E0,9.703040534E0
1.393612255E0,-6.189011335E-1,2.467224836E0,9.364321709E0,9.703646638E0
1.396125589E0,-6.189011335E-1,2.472013235E0,9.378686905E0,9.718727083E0
1.398638922E0,-6.141127348E-1,2.476801634E0,9.426570892E0,9.765854779E0
1.401152255E0,-6.093243361E-1,2.486378431E0,9.426570892E0,9.767988157E0
1.403665589E0,-5.949591398E-1,2.500743628E0,9.412205696E0,9.756910942E0
1.406178818E0,-5.614402890E-1,2.481590033E0,9.426570892E0,9.763899993E0
1.408691370E0,-5.710170865E-1,2.491166830E0,9.436147690E0,9.776137065E0
1.411203870E0,-5.710170865E-1,2.486378431E0,9.455301285E0,9.793409039E0
1.413716370E0,-5.614402890E-1,2.472013235E0,9.455301285E0,9.789217896E0
1.416228922E0,-5.566518903E-1,2.462436438E0,9.455301285E0,9.786530382E0
1.418741526E0,-5.566518903E-1,2.467224836E0,9.464878082E0,9.796988151E0
1.421254234E0,-5.566518903E-1,2.462436438E0,9.460089684E0,9.791156794E0
1.423767047E0,-5.518634915E-1,2.467224836E0,9.460089684E0,9.792091121E0
1.426279964E0,-5.566518903E-1,2.462436438E0,9.445724487E0,9.777278027E0
1.428792984E0,-5.566518903E-1,2.457648039E0,9.445724487E0,9.776073153E0
1.431306109E0,-5.662286878E-1,2.452859640E0,9.455301285E0,9.784674636E0
1.433819287E0,-5.805938840E-1,2.443282843E0,9.455301285E0,9.783120294E0
1.436332516E0,-5.853823423E-1,2.419340849E0,9.440936089E0,9.763562713E0
1.438845797E0,-5.997475386E-1,2.428917646E0,9.436147690E0,9.762183222E0
1.441359130E0,-6.093243361E-1,2.428917646E0,9.426570892E0,9.753520178E0
1.443872464E0,-6.428431273E-1,2.428917646E0,9.421782494E0,9.751044743E0
1.446385797E0,-6.476315856E-1,2.433706045E0,9.416994095E0,9.747929502E0
1.448899078E0,-6.428431273E-1,2.433706045E0,9.412205696E0,9.742986630E0
1.451412203E0,-6.524199843E-1,2.428917646E0,9.412205696E0,9.742428282E0
1.453925224E0,-6.763619781E-1,2.452859640E0,9.407417297E0,9.745434118E0
1.456438245E0,-7.050924301E-1,2.462436438E0,9.402628899E0,9.745264427E0
1.458951266E0,-7.098808289E-1,2.495955229E0,9.421782494E0,9.772599892E0
1.461464287E0,-7.146692276E-1,2.500743628E0,9.412205696E0,9.764941723E0
1.463977307E0,-7.290344238E-1,2.515108824E0,9.412205696E0,9.769691891E0
1.466490328E0,-7.290344238E-1,2.524685621E0,9.407417297E0,9.767549789E0
1.469003401E0,-7.146692276E-1,2.529474020E0,9.373898506E0,9.735448841E0
1.471516526E0,-7.290344238E-1,2.553416014E0,9.364321709E0,9.733547431E0
1.474029703E0,-7.242460251E-1,2.529474020E0,9.373898506E0,9.736156548E0
1.476542932E0,-7.338228226E-1,2.548627615E0,9.345168114E0,9.714224916E0
1.479056214E0,-7.433996201E-1,2.558204412E0,9.335591316E0,9.708260299E0
1.481569495E0,-7.625532150E-1,2.558204412E0,9.345168114E0,9.718953868E0
1.484082776E0,-7.625532150E-1,2.558204412E0,9.330802917E0,9.705141952E0
1.486595224E0,-7.577648163E-1,2.548627615E0,9.321226120E0,9.693037017E0
1.489107620E0,-7.529764175E-1,2.539050817E0,9.321226120E0,9.690150098E0
1.491620016E0,-7.577648163E-1,2.534262419E0,9.321226120E0,9.689269833E0
1.494132412E0,-7.625532150E-1,2.529474020E0,9.297284126E0,9.665361781E0
1.496644651E0,-7.577648163E-1,2.491166830E0,9.302072525E0,9.659641451E0
1.499156891E0,-7.577648163E-1,2.481590033E0,9.311649323E0,9.666401073E0
1.501669182E0,-7.529764175E-1,2.476801634E0,9.297284126E0,9.650959120E0
1.504181526E0,-7.433996201E-1,2.467224836E0,9.306860924E0,9.656992370E0
1.506693922E0,-7.386112213E-1,2.462436438E0,9.321226120E0,9.669250029E0
1.509206370E0,-7.338228226E-1,2.476801634E0,9.335591316E0,9.686398066E0
1.511718922E0,-7.194576263E-1,2.472013235E0,9.349956512E0,9.697945942E0
1.514231578E0,-7.050924301E-1,2.486378431E0,9.383475304E0,9.732874283E0
1.516744339E0,-7.003039718E-1,2.486378431E0,9.421782494E0,9.769467166E0
1.519257203E0,-7.050924301E-1,2.491166830E0,9.436147690E0,9.784883787E0
1.521770120E0,-7.050924301E-1,2.519897223E0,9.440936089E0,9.796852126E0
1.524283089E0,-7.146692276E-1,2.539050817E0,9.450512886E0,9.811713661E0
1.526796109E0,-7.194576263E-1,2.562992811E0,9.474454880E0,9.841333583E0
1.529309182E0,-7.194576263E-1,2.577358246E0,9.484031677E0,9.854301176E0
1.531822307E0,-7.098808289E-1,2.567781210E0,9.484031677E0,9.851105927E0
1.534335484E0,-7.338228226E-1,2.577358246E0,9.474454880E0,9.846144765E0
1.536848714E0,-7.481880188E-1,2.601300240E0,9.469666481E0,9.848915245E0
1.539361995E0,-7.577648163E-1,2.610877037E0,9.464878082E0,9.847578562E0
1.541875328E0,-7.817068696E-1,2.606088638E0,9.474454880E0,9.857386007E0
1.544388714E0,-7.817068696E-1,2.610877037E0,9.464878082E0,9.849449814E0
1.546902099E0,-8.008604646E-1,2.596511841E0,9.445724487E0,9.828782341E0
1.549415484E0,-8.104372621E-1,2.582146645E0,9.431359291E0,9.811973702E0
1.551928766E0,-8.152256608E-1,2.582146645E0,9.455301285E0,9.835384922E0
1.554441839E0,-8.343793154E-1,2.572569609E0,9.440936089E0,9.820670927E0
1.556954703E0,-8.439561129E-1,2.572569609E0,9.431359291E0,9.812283852E0
1.559467307E0,-8.583213091E-1,2.572569609E0,9.421782494E0,9.804326352E0
1.561979912E0,-8.870517015E-1,2.582146645E0,9.416994095E0,9.804800855E0
1.564492307E0,-8.870517015E-1,2.572569609E0,9.397840500E0,9.783883747E0
1.567004391E0,-8.822633028E-1,2.577358246E0,9.383475304E0,9.770914637E0
1.569516474E0,-9.062053561E-1,2.562992811E0,9.383475304E0,9.769326951E0
1.572028557E0,-9.157821536E-1,2.572569609E0,9.388263702E0,9.777334335E0
1.574540537E0,-9.014169574E-1,2.558204412E0,9.388263702E0,9.772228901E0
1.577052516E0,-9.014169574E-1,2.562992811E0,9.383475304E0,9.768883941E0
1.579564495E0,-8.918401599E-1,2.577358246E0,9.407417297E0,9.794776904E0
1.582076474E0,-8.774749041E-1,2.577358246E0,9.397840500E0,9.784280443E0
1.584588505E0,-8.822633028E-1,2.572569609E0,9.407417297E0,9.792650465E0
1.587100641E0,-8.870517015E-1,2.567781210E0,9.407417297E0,9.791826248E0
1.589612932E0,-8.870517015E-1,2.577358246E0,9.412205696E0,9.798941387E0
1.592125380E0,-8.822633028E-1,2.591723442E0,9.407417297E0,9.797699686E0
1.594637984E0,-8.726865053E-1,2.577358246E0,9.436147690E0,9.820653771E0
1.597150745E0,-8.583213091E-1,2.586935043E0,9.440936089E0,9.826506125E0
1.599663714E0,-8.678981066E-1,2.601300240E0,9.445724487E0,9.835736940E0
1.602176891E0,-8.822633028E-1,2.591723442E0,9.436147690E0,9.825288910E0
1.604690224E0,-8.870517015E-1,2.582146645E0,9.421782494E0,9.809399950E0
1.607203714E0,-9.014169574E-1,2.586935043E0,9.416994095E0,9.807372902E0
1.609717359E0,-8.918401599E-1,2.577358246E0,9.416994095E0,9.803975325E0
1.612231109E0,-8.966285586E-1,2.572569609E0,9.402628899E0,9.789355820E0
1.614744912E0,-8.870517015E-1,2.582146645E0,9.388263702E0,9.777210101E0
1.617258766E0,-8.966285586E-1,2.586935043E0,9.369110107E0,9.760963062E0
1.619772620E0,-8.870517015E-1,2.591723442E0,9.359533310E0,9.752166677E0
1.622286474E0,-8.918401599E-1,2.577358246E0,9.364321709E0,9.753393023E0
1.624799859E0,-8.966285586E-1,2.586935043E0,9.345168114E0,9.737984533E0
1.627313089E0,-9.301473498E-1,2.601300240E0,9.359533310E0,9.758729467E0
1.629826318E0,-9.301473498E-1,2.596511841E0,9.364321709E0,9.762047372E0
1.632339547E0,-9.493009448E-1,2.610877037E0,9.364321709E0,9.767720934E0
1.634852776E0,-9.493009448E-1,2.610877037E0,9.354744911E0,9.758540031E0
1.637366005E0,-9.636662006E-1,2.596511841E0,9.369110107E0,9.769889994E0
1.639879234E0,-9.828197956E-1,2.620453835E0,9.388263702E0,9.796540634E0
1.642392464E0,-9.971849918E-1,2.625242233E0,9.402628899E0,9.813037496E0
1.644905693E0,-1.006761789E0,2.649184227E0,9.421782494E0,9.838787106E0
1.647418922E0,-1.016338587E0,2.644395828E0,9.431359291E0,9.847655127E0
1.649932151E0,-1.011550188E0,2.658761024E0,9.455301285E0,9.873953937E0
1.652445380E0,-9.971849918E-1,2.673126221E0,9.469666481E0,9.890124618E0
1.654958609E0,-9.780313969E-1,2.668337822E0,9.484031677E0,9.900678209E0
1.657471839E0,-9.636662006E-1,2.658761024E0,9.493608475E0,9.905870209E0
1.659985068E0,-9.445125461E-1,2.644395828E0,9.493608475E0,9.900178540E0
1.662498297E0,-9.445125461E-1,2.644395828E0,9.512762070E0,9.918547043E0
1.665011526E0,-9.349357486E-1,2.625242233E0,9.493608475E0,9.894170178E0
1.667524755E0,-9.205705523E-1,2.639607430E0,9.469666481E0,9.873680205E0
1.670037672E0,-9.157821536E-1,2.639607430E0,9.464878082E0,9.868642330E0
1.672550589E0,-9.253589511E-1,2.644395828E0,9.436147690E0,9.843271901E0
1.675063505E0,-9.253589511E-1,2.653972626E0,9.450512886E0,9.859617320E0
1.677576422E0,-9.062053561E-1,2.644395828E0,9.412205696E0,9.818536220E0
1.680089339E0,-9.062053561E-1,2.644395828E0,9.412205696E0,9.818536220E0
1.682602255E0,-8.870517015E-1,2.639607430E0,9.416994095E0,9.820089912E0
1.685115172E0,-8.774749041E-1,2.634819031E0,9.412205696E0,9.813350580E0
1.687628141E0,-8.870517015E-1,2.658761024E0,9.402628899E0,9.811488221E0
1.690141109E0,-8.726865053E-1,2.658761024E0,9.416994095E0,9.823969142E0
1.692654078E0,-8.774749041E-1,2.658761024E0,9.416994095E0,9.824395665E0
1.695167047E0,-8.966285586E-1,2.663549423E0,9.436147690E0,9.845776837E0
1.697680016E0,-8.678981066E-1,2.668337822E0,9.450512886E0,9.858268999E0
1.700192984E0,-8.535329103E-1,2.653972626E0,9.445724487E0,9.848543050E0
1.702705953E0,-8.678981066E-1,2.668337822E0,9.436147690E0,9.844498823E0
1.705218922E0,-8.535329103E-1,2.658761024E0,9.426570892E0,9.831468222E0
1.707731891E0,-8.391677141E-1,2.649184227E0,9.421782494E0,9.823052727E0
1.710244859E0,-8.295909166E-1,2.644395828E0,9.445724487E0,9.843920026E0
1.712757828E0,-8.295909166E-1,2.673126221E0,9.416994095E0,9.824133685E0
1.715270797E0,-8.343793154E-1,2.663549423E0,9.416994095E0,9.821937800E0
1.717783557E0,-8.248024583E-1,2.658761024E0,9.388263702E0,9.792282912E0
1.720296109E0,-8.056488633E-1,2.663549423E0,9.373898506E0,9.778217569E0
1.722808662E0,-7.960720658E-1,2.653972626E0,9.388263702E0,9.788605456E0
1.725321214E0,-7.817068696E-1,2.668337822E0,9.393052101E0,9.795944066E0
1.727833714E0,-7.864952683E-1,2.658761024E0,9.359533310E0,9.761580240E0
1.730346057E0,-7.817068696E-1,2.658761024E0,9.359533310E0,9.761195603E0
1.732858401E0,-7.673416734E-1,2.658761024E0,9.345168114E0,9.746280855E0
1.735370745E0,-7.817068696E-1,2.653972626E0,9.349956512E0,9.750708852E0
1.737883141E0,-7.817068696E-1,2.649184227E0,9.335591316E0,9.735630844E0
1.740395589E0,-7.912836671E-1,2.649184227E0,9.354744911E0,9.754771103E0
1.742908141E0,-7.769184709E-1,2.658761024E0,9.364321709E0,9.765404936E0
1.745420797E0,-7.721300721E-1,2.653972626E0,9.373898506E0,9.772907896E0
1.747933557E0,-7.625532150E-1,2.653972626E0,9.369110107E0,9.767562762E0
1.750446474E0,-7.625532150E-1,2.663549423E0,9.354744911E0,9.756394585E0
1.752959495E0,-7.625532150E-1,2.658761024E0,9.369110107E0,9.768864919E0
1.755472620E0,-7.338228226E-1,2.663549423E0,9.369110107E0,9.767968861E0
1.757985849E0,-7.194576263E-1,2.649184227E0,9.359533310E0,9.753802342E0
1.760499182E0,-7.146692276E-1,2.649184227E0,9.364321709E0,9.758045411E0
1.763012620E0,-7.003039718E-1,2.644395828E0,9.378686905E0,9.769494511E0
1.765526109E0,-7.003039718E-1,2.639607430E0,9.388263702E0,9.777394764E0
1.768039703E0,-6.763619781E-1,2.634819031E0,9.383475304E0,9.769818096E0
1.770553349E0,-6.619967818E-1,2.639607430E0,9.393052101E0,9.779324869E0
1.773067047E0,-6.715735793E-1,2.649184227E0,9.378686905E0,9.768774550E0
1.775580797E0,-6.715735793E-1,2.649184227E0,9.388263702E0,9.777969293E0
1.778094599E0,-6.763619781E-1,2.653972626E0,9.397840500E0,9.788791666E0
1.780608453E0,-6.859387755E-1,2.653972626E0,9.397840500E0,9.789458042E0
1.783122307E0,-6.811503768E-1,2.649184227E0,9.397840500E0,9.787826570E0
1.785636162E0,-6.955155730E-1,2.653972626E0,9.407417297E0,9.799327161E0
1.788149651E0,-6.811503768E-1,2.658761024E0,9.393052101E0,9.785826679E0
1.790662203E0,-6.811503768E-1,2.673126221E0,9.383475304E0,9.780551028E0
1.793174547E0,-6.667851806E-1,2.644395828E0,9.397840500E0,9.785542286E0
1.795686891E0,-6.763619781E-1,2.644395828E0,9.378686905E0,9.767807476E0
1.798199234E0,-6.715735793E-1,2.639607430E0,9.364321709E0,9.752387375E0
1.800711578E0,-6.715735793E-1,2.634819031E0,9.354744911E0,9.741895850E0
1.803223922E0,-6.715735793E-1,2.625242233E0,9.340379715E0,9.725512895E0
1.805736266E0,-6.859387755E-1,2.625242233E0,9.345168114E0,9.731113804E0
1.808248662E0,-6.619967818E-1,2.615665436E0,9.354744911E0,9.736077124E0
1.810761109E0,-6.811503768E-1,2.606088638E0,9.373898506E0,9.753237259E0
1.813273609E0,-6.763619781E-1,2.606088638E0,9.364321709E0,9.743699738E0
1.815786214E0,-6.667851806E-1,2.620453835E0,9.383475304E0,9.765295159E0
1.818298974E0,-6.572083831E-1,2.620453835E0,9.378686905E0,9.760044530E0
1.820811891E0,-6.572083831E-1,2.615665436E0,9.364321709E0,9.744955084E0
1.823324964E0,-6.715735793E-1,2.615665436E0,9.364321709E0,9.745934425E0
1.825838193E0,-6.476315856E-1,2.601300240E0,9.378686905E0,9.754278941E0
1.828351578E0,-6.189011335E-1,2.601300240E0,9.383475304E0,9.757018516E0
1.830865120E0,-6.093243361E-1,2.596511841E0,9.373898506E0,9.745928539E0
1.833378818E0,-5.997475386E-1,2.582146645E0,9.369110107E0,9.736909294E0
1.835892672E0,-5.805938840E-1,2.582146645E0,9.378686905E0,9.744964783E0
1.838406630E0,-5.662286878E-1,2.606088638E0,9.373898506E0,9.745885600E0
1.840920693E0,-5.662286878E-1,2.586935043E0,9.378686905E0,9.745389469E0
1.843434807E0,-5.949591398E-1,2.596511841E0,9.369110107E0,9.740435017E0
1.845948922E0,-6.093243361E-1,2.586935043E0,9.378686905E0,9.747988363E0
1.848462307E0,-6.284779310E-1,2.586935043E0,9.388263702E0,9.758417534E0
1.850974912E0,-6.332663298E-1,2.596511841E0,9.378686905E0,9.752059682E0
1.853487516E0,-6.332663298E-1,2.586935043E0,9.397840500E0,9.767940685E0
1.856000172E0,-6.380547285E-1,2.586935043E0,9.421782494E0,9.791288583E0
1.858512880E0,-6.667851806E-1,2.582146645E0,9.421782494E0,9.791938987E0
1.861025693E0,-6.667851806E-1,2.567781210E0,9.412205696E0,9.778942626E0
1.863538609E0,-6.667851806E-1,2.567781210E0,9.421782494E0,9.788160612E0
1.866051630E0,-6.572083831E-1,2.572569609E0,9.436147690E0,9.802597639E0
1.868564755E0,-6.619967818E-1,2.562992811E0,9.450512886E0,9.814243002E0
1.871077984E0,-6.476315856E-1,2.562992811E0,9.436147690E0,9.799451109E0
1.873591318E0,-6.476315856E-1,2.577358246E0,9.455301285E0,9.821655898E0
1.876104755E0,-6.428431273E-1,2.572569609E0,9.479243279E0,9.843140495E0
1.878618297E0,-6.284779310E-1,2.558204412E0,9.464878082E0,9.824627802E0
1.881131943E0,-6.236895323E-1,2.553416014E0,9.455301285E0,9.813849620E0
1.883645641E0,-6.045359373E-1,2.543839216E0,9.469666481E0,9.824009615E0
1.886159391E0,-6.045359373E-1,2.534262419E0,9.474454880E0,9.826151076E0
1.888673141E0,-5.949591398E-1,2.519897223E0,9.484031677E0,9.831109563E0
1.891186891E0,-5.853823423E-1,2.529474020E0,9.464878082E0,9.814521304E0
1.893700641E0,-5.566518903E-1,2.529474020E0,9.469666481E0,9.817468279E0
1.896214287E0,-5.614402890E-1,2.519897223E0,9.455301285E0,9.801419264E0
1.898727359E0,-5.662286878E-1,2.519897223E0,9.426570892E0,9.773982593E0
1.901240432E0,-5.470750928E-1,2.543839216E0,9.436147690E0,9.788324287E0
1.903753505E0,-5.422866940E-1,2.553416014E0,9.445724487E0,9.799781594E0
1.906266578E0,-5.470750928E-1,2.553416014E0,9.421782494E0,9.776973451E0
1.908779651E0,-5.518634915E-1,2.558204412E0,9.407417297E0,9.764653775E0
1.911292724E0,-5.710170865E-1,2.562992811E0,9.416994095E0,9.776234983E0
1.913805797E0,-5.710170865E-1,2.562992811E0,9.397840500E0,9.757786569E0
1.916318870E0,-5.949591398E-1,2.558204412E0,9.402628899E0,9.762572222E0
1.918831943E0,-6.141127348E-1,2.558204412E0,9.393052101E0,9.754535973E0
1.921345016E0,-6.236895323E-1,2.558204412E0,9.397840500E0,9.759754326E0
1.923858089E0,-6.428431273E-1,2.567781210E0,9.378686905E0,9.745076484E0
1.926371162E0,-6.476315856E-1,2.553416014E0,9.373898506E0,9.737008432E0
1.928884234E0,-6.524199843E-1,2.572569609E0,9.369110107E0,9.737761059E0
1.931397307E0,-6.476315856E-1,2.558204412E0,9.373898506E0,9.738265230E0
1.933910432E0,-6.524199843E-1,2.577358246E0,9.383475304E0,9.752847591E0
1.936423609E0,-6.619967818E-1,2.567781210E0,9.364321709E0,9.732536213E0
1.938936839E0,-6.380547285E-1,2.558204412E0,9.349956512E0,9.714587507E0
1.941450068E0,-6.332663298E-1,2.582146645E0,9.349956512E0,9.720606685E0
1.943963297E0,-6.284779310E-1,2.572569609E0,9.349956512E0,9.717756206E0
1.946476005E0,-6.476315856E-1,2.596511841E0,9.340379715E0,9.716171758E0
1.948988662E0,-6.380547285E-1,2.606088638E0,9.354744911E0,9.731909586E0
1.951501318E0,-6.380547285E-1,2.610877037E0,9.354744911E0,9.733192955E0
1.954013818E0,-6.236895323E-1,2.615665436E0,9.354744911E0,9.733547486E0
1.956526266E0,-6.093243361E-1,2.591723442E0,9.359533310E0,9.730836055E0
1.959038714E0,-6.284779310E-1,2.606088638E0,9.378686905E0,9.754304207E0
1.961551162E0,-6.332663298E-1,2.606088638E0,9.373898506E0,9.750010125E0
1.964063609E0,-6.189011335E-1,2.610877037E0,9.349956512E0,9.727353407E0
1.966576109E0,-6.236895323E-1,2.610877037E0,9.349956512E0,9.727659242E0
1.969088662E0,-6.332663298E-1,2.601300240E0,9.359533310E0,9.734919258E0
1.971601318E0,-6.332663298E-1,2.620453835E0,9.369110107E0,9.749257856E0
1.974114078E0,-6.189011335E-1,2.606088638E0,9.369110107E0,9.744483609E0
1.976626995E0,-6.141127348E-1,2.606088638E0,9.354744911E0,9.730369201E0
1.979140016E0,-6.189011335E-1,2.630030632E0,9.369110107E0,9.750914006E0
1.981653193E0,-6.141127348E-1,2.620453835E0,9.345168114E0,9.725023384E0
1.984166526E0,-6.141127348E-1,2.610877037E0,9.364321709E0,9.740859018E0
1.986679964E0,-6.236895323E-1,2.606088638E0,9.373898506E0,9.749392793E0
1.989193505E0,-6.236895323E-1,2.610877037E0,9.369110107E0,9.746070579E0
1.991707151E0,-6.189011335E-1,2.630030632E0,9.373898506E0,9.755515001E0
1.994220901E0,-6.380547285E-1,2.630030632E0,9.369110107E0,9.752148439E0
1.996734703E0,-6.380547285E-1,2.625242233E0,9.364321709E0,9.746257317E0
1.999248557E0,-6.380547285E-1,2.630030632E0,9.354744911E0,9.738348285E0
2.001762412E0,-6.524199843E-1,2.615665436E0,9.345168114E0,9.726228693E0
2.004276266E0,-6.524199843E-1,2.610877037E0,9.321226120E0,9.701937287E0
2.006789651E0,-6.572083831E-1,2.630030632E0,9.330802917E0,9.716628380E0
2.009302932E0,-6.715735793E-1,2.630030632E0,9.321226120E0,9.708415348E0
2.011816214E0,-6.955155730E-1,2.644395828E0,9.326014519E0,9.718596504E0
2.014329495E0,-6.955155730E-1,2.649184227E0,9.326014519E0,9.719900503E0
2.016842776E0,-6.859387755E-1,2.644395828E0,9.349956512E0,9.740894624E0
2.019356057E0,-6.811503768E-1,2.649184227E0,9.373898506E0,9.764840813E0
2.021869339E0,-6.715735793E-1,2.658761024E0,9.407417297E0,9.798955121E0
2.024382620E0,-6.524199843E-1,2.673126221E0,9.416994095E0,9.810761102E0
2.026895745E0,-6.284779310E-1,2.668337822E0,9.421782494E0,9.812491865E0
2.029408349E0,-6.141127348E-1,2.653972626E0,9.450512886E0,9.835288453E0
2.031920953E0,-5.997475386E-1,2.649184227E0,9.474454880E0,9.856123449E0
2.034433557E0,-5.758054852E-1,2.634819031E0,9.479243279E0,9.855449072E0
2.036946214E0,-5.614402890E-1,2.620453835E0,9.488820076E0,9.860005068E0
2.039458922E0,-5.422866940E-1,2.596511841E0,9.512762070E0,9.875656474E0
2.041971682E0,-5.422866940E-1,2.567781210E0,9.536704063E0,9.891223362E0
2.044484495E0,-5.279214978E-1,2.572569609E0,9.560646057E0,9.914775264E0
2.046997359E0,-5.614402890E-1,2.562992811E0,9.575011253E0,9.927990121E0
2.049510276E0,-5.710170865E-1,2.529474020E0,9.565434456E0,9.910692996E0
2.052023245E0,-5.758054852E-1,2.515108824E0,9.565434456E0,9.907313495E0
2.054536266E0,-5.997475386E-1,2.519897223E0,9.594164848E0,9.937684753E0
2.057049339E0,-6.093243361E-1,2.519897223E0,9.598953247E0,9.942890002E0
2.059562412E0,-6.045359373E-1,2.510320425E0,9.570222855E0,9.912433497E0
2.062075484E0,-6.236895323E-1,2.524685621E0,9.565434456E0,9.912646592E0
2.064588557E0,-6.189011335E-1,2.529474020E0,9.541492462E0,9.890467928E0
2.067101630E0,-6.236895323E-1,2.543839216E0,9.517550468E0,9.871366345E0
2.069614703E0,-6.380547285E-1,2.562992811E0,9.479243279E0,9.840330234E0
2.072127776E0,-6.380547285E-1,2.572569609E0,9.436147690E0,9.801332126E0
2.074640849E0,-6.236895323E-1,2.582146645E0,9.407417297E0,9.775273405E0
2.077153922E0,-6.093243361E-1,2.596511841E0,9.373898506E0,9.745928539E0
2.079666995E0,-6.093243361E-1,2.615665436E0,9.316437721E0,9.695823515E0
2.082180068E0,-5.853823423E-1,2.658761024E0,9.311649323E0,9.701468743E0
2.084693141E0,-5.901707411E-1,2.682703018E0,9.268553734E0,9.667020498E0
2.087206214E0,-5.901707411E-1,2.687491417E0,9.244611740E0,9.645400865E0
2.089719287E0,-6.045359373E-1,2.706645012E0,9.206304550E0,9.614958887E0
2.092232359E0,-5.853823423E-1,2.725798607E0,9.191938400E0,9.605435028E0
2.094745432E0,-5.853823423E-1,2.730587006E0,9.172784805E0,9.588470106E0
2.097258505E0,-5.853823423E-1,2.740163803E0,9.153631210E0,9.572885380E0
2.099771578E0,-5.805938840E-1,2.764105797E0,9.144054413E0,9.570323987E0
2.102284651E0,-5.710170865E-1,2.759317398E0,9.148842812E0,9.572941962E0
2.104797724E0,-5.805938840E-1,2.773682594E0,9.158419609E0,9.586816684E0
2.107310797E0,-5.662286878E-1,2.783259392E0,9.163208008E0,9.593306456E0
2.109823870E0,-5.470750928E-1,2.764105797E0,9.196727753E0,9.618699152E0
2.112336943E0,-5.279214978E-1,2.759317398E0,9.220669746E0,9.639153707E0
2.114850016E0,-5.374982953E-1,2.740163803E0,9.273342133E0,9.684641263E0
2.117363089E0,-5.374982953E-1,2.725798607E0,9.326014519E0,9.731054890E0
2.119876162E0,-5.087678432E-1,2.697068214E0,9.426570892E0,9.818006949E0
2.122389234E0,-4.752490520E-1,2.682703018E0,9.512762070E0,9.895221035E0
2.124902307E0,-4.752490520E-1,2.653972626E0,9.584588051E0,9.956593818E0
2.127415380E0,-4.944026470E-1,2.649184227E0,9.661202431E0,1.003002709E1
2.129928453E0,-4.944026470E-1,2.644395828E0,9.723451614E0,1.008874495E1
2.132441526E0,-4.944026470E-1,2.615665436E0,9.785700798E0,1.014130562E1
2.134954599E0,-4.944026470E-1,2.596511841E0,9.838373184E0,1.018724176E1
2.137467672E0,-4.944026470E-1,2.591723442E0,9.876680374E0,1.022302693E1
2.139980745E0,-4.896142483E-1,2.586935043E0,9.895833969E0,1.024009204E1
2.142493818E0,-5.039794445E-1,2.567781210E0,9.924564362E0,1.026374558E1
2.145006891E0,-5.183446407E-1,2.562992811E0,9.924564362E0,1.026326415E1
2.147519964E0,-5.374982953E-1,2.548627615E0,9.914987564E0,1.025140895E1
2.150033037E0,-5.327098966E-1,2.524685621E0,9.900622368E0,1.023133132E1
2.152546109E0,-5.327098966E-1,2.524685621E0,9.871891975E0,1.020353216E1
2.155058662E0,-5.183446407E-1,2.505532026E0,9.847949982E0,1.017489512E1
2.157571214E0,-5.327098966E-1,2.491166830E0,9.838373184E0,1.016283813E1
2.160083766E0,-5.327098966E-1,2.476801634E0,9.814431190E0,1.013614255E1
2.162596318E0,-5.327098966E-1,2.472013235E0,9.785700798E0,1.010715437E1
2.165108870E0,-5.374982953E-1,2.452859640E0,9.742605209E0,1.006100299E1
2.167621422E0,-5.518634915E-1,2.443282843E0,9.723451614E0,1.004090114E1
2.170133974E0,-5.853823423E-1,2.433706045E0,9.713874817E0,1.003119941E1
2.172646578E0,-6.284779310E-1,2.452859640E0,9.670779228E0,9.996773270E0
2.175159234E0,-6.380547285E-1,2.448071241E0,9.646837234E0,9.973045436E0
2.177671995E0,-7.098808289E-1,2.467224836E0,9.627683640E0,9.964106656E0
2.180184859E0,-7.625532150E-1,2.505532026E0,9.584588051E0,9.935970322E0
2.182697828E0,-6.763619781E-1,2.524685621E0,9.565434456E0,9.916100007E0
2.185210901E0,-6.045359373E-1,2.567781210E0,9.517550468E0,9.876372358E0
2.187724026E0,-5.327098966E-1,2.577358246E0,9.460089684E0,9.819361088E0
2.190237255E0,-5.183446407E-1,2.615665436E0,9.402628899E0,9.773424018E0
2.192750537E0,-5.087678432E-1,2.649184227E0,9.369110107E0,9.749730560E0
2.195263870E0,-5.039794445E-1,2.658761024E0,9.378686905E0,9.761289542E0
2.197777255E0,-5.183446407E-1,2.682703018E0,9.378686905E0,9.768589699E0
2.200290693E0,-5.374982953E-1,2.697068214E0,9.407417297E0,9.801152054E0
2.202804182E0,-5.614402890E-1,2.711433411E0,9.440936089E0,9.838615785E0
2.205317672E0,-5.710170865E-1,2.721010208E0,9.507973671E0,9.906135492E0
2.207831162E0,-5.949591398E-1,2.711433411E0,9.546280861E0,9.941696324E0
2.210344651E0,-5.901707411E-1,2.706645012E0,9.603741646E0,9.995303013E0
2.212858141E0,-5.997475386E-1,2.668337822E0,9.675567627E0,1.005466721E1
2.215371370E0,-5.901707411E-1,2.639607430E0,9.737816811E0,1.010647837E1
2.217884287E0,-5.710170865E-1,2.596511841E0,9.780912399E0,1.013578717E1
2.220397203E0,-5.422866940E-1,2.558204412E0,9.862315178E0,1.020312429E1
2.222910120E0,-5.183446407E-1,2.500743628E0,9.881468773E0,1.020616603E1
2.225423037E0,-5.087678432E-1,2.424129248E0,9.924564362E0,1.022898945E1
2.227935953E0,-4.848258495E-1,2.376245260E0,9.991601944E0,1.028171713E1
2.230448870E0,-4.656722248E-1,2.313995838E0,1.004906273E1,1.032255245E1
2.232961787E0,-4.608838260E-1,2.266111851E0,1.011610031E1,1.037704979E1
2.235474703E0,-4.800374508E-1,2.203862667E0,1.014004230E1,1.038787296E1
2.237987620E0,-4.896142483E-1,2.132036686E0,1.018313885E1,1.041545099E1
2.240500589E0,-5.039794445E-1,2.069787264E0,1.021665764E1,1.043638385E1
2.243013609E0,-5.039794445E-1,2.017114878E0,1.024538803E1,1.045422037E1
2.245526682E0,-5.135562420E-1,1.988384485E0,1.024538803E1,1.044918125E1
2.248039807E0,-5.518634915E-1,1.954865694E0,1.026933002E1,1.046829462E1
2.250552984E0,-5.279214978E-1,1.916558504E0,1.021665764E1,1.040826551E1
2.253066214E0,-5.039794445E-1,1.906981707E0,1.014483070E1,1.033480355E1
2.255579443E0,-4.465186298E-1,1.868674397E0,1.009215832E1,1.027341143E1
2.258092672E0,-4.273650050E-1,1.849520802E0,1.005385113E1,1.023148526E1
2.260605901E0,-4.082113802E-1,1.854309201E0,9.996390343E0,1.017511273E1
2.263119130E0,-3.938461840E-1,1.868674397E0,9.943717957E0,1.012544249E1
2.265632359E0,-4.129997790E-1,1.902193308E0,9.876680374E0,1.006666397E1
2.268145589E0,-4.369418025E-1,1.921346903E0,9.790489197E0,9.986799826E0
2.270658505E0,-4.513070285E-1,1.954865694E0,9.699509621E0,9.904830377E0
2.273171057E0,-4.560954273E-1,2.002749681E0,9.579799652E0,9.797529826E0
2.275683609E0,-4.752490520E-1,2.026691675E0,9.464878082E0,9.691091678E0
2.278196162E0,-5.183446407E-1,2.074575663E0,9.349956512E0,9.591362371E0
2.280708714E0,-5.327098966E-1,2.127248287E0,9.249400139E0,9.505807069E0
2.283221266E0,-5.614402890E-1,2.170343876E0,9.163208008E0,9.433450521E0
2.285733870E0,-6.332663298E-1,2.213439465E0,9.067440033E0,9.355148810E0
2.288246526E0,-6.332663298E-1,2.246958256E0,8.990825653E0,9.288960845E0
2.290759234E0,-5.901707411E-1,2.294842243E0,8.942941666E0,9.251530039E0
2.293272047E0,-5.710170865E-1,2.328361034E0,8.875904083E0,9.193965353E0
2.295784964E0,-5.853823423E-1,2.357091665E0,8.847173691E0,9.174477419E0
2.298297984E0,-6.236895323E-1,2.390610456E0,8.808866501E0,9.148777843E0
2.300811109E0,-6.380547285E-1,2.433706045E0,8.808866501E0,9.161122638E0
2.303324339E0,-6.524199843E-1,2.438494444E0,8.808866501E0,9.163407446E0
2.305837672E0,-6.763619781E-1,2.443282843E0,8.837596893E0,9.194031511E0
2.308351057E0,-7.098808289E-1,2.457648039E0,8.875904083E0,9.237187774E0
2.310864495E0,-7.242460251E-1,2.486378431E0,8.890269279E0,9.259778500E0
2.313377932E0,-7.529764175E-1,2.491166830E0,8.928576469E0,9.300127065E0
2.315891370E0,-7.433996201E-1,2.472013235E0,8.971672058E0,9.335651662E0
2.318404807E0,-7.529764175E-1,2.462436438E0,8.986037254E0,9.347696627E0
2.320917828E0,-7.577648163E-1,2.467224836E0,8.986037254E0,9.349346044E0
2.323430797E0,-7.433996201E-1,2.452859640E0,9.014767647E0,9.372043488E0
2.325943766E0,-7.386112213E-1,2.433706045E0,9.033921242E0,9.385105468E0
2.328456734E0,-7.290344238E-1,2.428917646E0,9.057863235E0,9.406169173E0
2.330969703E0,-6.955155730E-1,2.404975653E0,9.100958824E0,9.439020146E0
2.333482672E0,-6.380547285E-1,2.390610456E0,9.139266014E0,9.468279435E0
2.335995641E0,-5.997475386E-1,2.371456861E0,9.134477615E0,9.456330475E0
2.338508609E0,-5.470750928E-1,2.371456861E0,9.163208008E0,9.480900790E0
2.341021578E0,-5.039794445E-1,2.347514868E0,9.163208008E0,9.472549938E0
2.343534547E0,-4.896142483E-1,2.366668463E0,9.167996407E0,9.481191900E0
2.346047516E0,-4.704606235E-1,2.361880064E0,9.167996407E0,9.479027838E0
2.348560484E0,-4.369418025E-1,2.357091665E0,9.129689217E0,9.439174988E0
2.351073453E0,-4.082113802E-1,2.337938070E0,9.129689217E0,9.433123350E0
2.353586422E0,-3.507505357E-1,2.347514868E0,9.124900818E0,9.428555930E0
2.356099391E0,-3.076549172E-1,2.352303267E0,9.110535622E0,9.414342331E0
2.358612359E0,-3.459621370E-1,2.333149672E0,9.053074837E0,9.355289477E0
2.361125328E0,-3.746925592E-1,2.376245260E0,9.024344444E0,9.339471543E0
2.363638297E0,-3.746925592E-1,2.414552450E0,8.990825653E0,9.316941771E0
2.366151266E0,-3.411737382E-1,2.428917646E0,8.971672058E0,9.300910707E0
2.368664234E0,-3.842693865E-1,2.457648039E0,8.918999672E0,9.259387236E0
2.371177203E0,-4.129997790E-1,2.481590033E0,8.904634476E0,9.253181780E0
2.373690172E0,-4.513070285E-1,2.519897223E0,8.890269279E0,9.251510574E0
2.376203141E0,-4.991910458E-1,2.558204412E0,8.871115685E0,9.246096203E0
2.378716109E0,-5.662286878E-1,2.586935043E0,8.856750488E0,9.244180713E0
2.381229078E0,-5.997475386E-1,2.610877037E0,8.842385292E0,9.239272356E0
2.383742047E0,-6.332663298E-1,2.601300240E0,8.847173691E0,9.243390693E0
2.386255016E0,-6.572083831E-1,2.615665436E0,8.866327286E0,9.267436974E0
2.388767984E0,-6.859387755E-1,2.615665436E0,8.885480881E0,9.287840877E0
2.391280953E0,-7.338228226E-1,2.620453835E0,8.904634476E0,9.311164770E0
2.393793922E0,-7.673416734E-1,2.601300240E0,8.947730064E0,9.349729915E0
2.396306630E0,-8.008604646E-1,2.596511841E0,8.986037254E0,9.387870726E0
2.398819078E0,-8.343793154E-1,2.591723442E0,9.048286438E0,9.449058509E0
2.401331526E0,-8.439561129E-1,2.567781210E0,9.091382027E0,9.484671287E0
2.403843974E0,-8.583213091E-1,2.524685621E0,9.172784805E0,9.552525009E0
2.406356422E0,-8.535329103E-1,2.510320425E0,9.254188538E0,9.626537932E0
2.408868870E0,-8.583213091E-1,2.472013235E0,9.306860924E0,9.667741471E0
2.411381318E0,-8.966285586E-1,2.452859640E0,9.369110107E0,9.726288469E0
2.413893766E0,-9.205705523E-1,2.428917646E0,9.460089684E0,9.810218545E0
2.416406214E0,-9.014169574E-1,2.381033659E0,9.579799652E0,9.912337524E0
2.418918714E0,-8.774749041E-1,2.361880064E0,9.661202431E0,9.984351359E0
2.421431266E0,-8.822633028E-1,2.328361034E0,9.704298019E0,1.001863532E1
2.423943870E0,-8.774749041E-1,2.309207439E0,9.723451614E0,1.003234332E1
2.426456526E0,-8.631097078E-1,2.285265446E0,9.718663216E0,1.002096858E1
2.428969234E0,-8.583213091E-1,2.261323452E0,9.723451614E0,1.001977098E1
2.431482047E0,-8.391677141E-1,2.261323452E0,9.713874817E0,1.000885359E1
2.433994964E0,-7.864952683E-1,2.242169857E0,9.728240013E0,1.001421760E1
2.436507932E0,-7.769184709E-1,2.242169857E0,9.747393608E0,1.003207905E1
2.439020953E0,-7.769184709E-1,2.261323452E0,9.737816811E0,1.002707646E1
2.441534026E0,-7.338228226E-1,2.251746655E0,9.733028412E0,1.001702056E1
2.444047151E0,-7.146692276E-1,2.275688648E0,9.689932823E0,9.979193807E0
2.446560328E0,-6.859387755E-1,2.256535053E0,9.622895241E0,9.907702825E0
2.449073505E0,-6.572083831E-1,2.275688648E0,9.555857658E0,9.845054457E0
2.451586682E0,-6.619967818E-1,2.294842243E0,9.464878082E0,9.761580701E0
2.454099859E0,-7.003039718E-1,2.309207439E0,9.345168114E0,9.651685434E0
2.456613037E0,-7.242460251E-1,2.342726469E0,9.220669746E0,9.541155600E0
2.459126162E0,-7.481880188E-1,2.352303267E0,9.134477615E0,9.462124353E0
2.461638922E0,-7.864952683E-1,2.409764051E0,9.110535622E0,9.456605993E0
2.464151682E0,-8.008604646E-1,2.457648039E0,9.096170425E0,9.456306244E0
2.466664443E0,-8.152256608E-1,2.500743628E0,9.067440033E0,9.441227691E0
2.469177203E0,-8.343793154E-1,2.543839216E0,9.024344444E0,9.413081294E0
2.471689964E0,-8.583213091E-1,2.577358246E0,8.957306862E0,9.360172927E0
2.474202776E0,-8.918401599E-1,2.591723442E0,8.904634476E0,9.316916036E0
2.476715641E0,-8.966285586E-1,2.630030632E0,8.861538887E0,9.286973422E0
2.479228557E0,-9.014169574E-1,2.644395828E0,8.808866501E0,9.241293787E0
2.481741526E0,-8.918401599E-1,2.668337822E0,8.765770912E0,9.206201458E0
2.484254547E0,-8.870517015E-1,2.673126221E0,8.698733330E0,9.143326859E0
2.486767620E0,-8.631097078E-1,2.668337822E0,8.655637741E0,9.098629007E0
2.489280745E0,-8.583213091E-1,2.668337822E0,8.622118950E0,9.066293476E0
2.491793870E0,-8.295909166E-1,2.677914619E0,8.574234962E0,9.020917525E0
2.494306995E0,-7.864952683E-1,2.663549423E0,8.540716171E0,8.980918831E0
2.496820120E0,-7.864952683E-1,2.663549423E0,8.511985779E0,8.953601076E0
2.499333245E0,-7.721300721E-1,2.625242233E0,8.454524994E0,8.886342020E0
2.501846370E0,-7.721300721E-1,2.610877037E0,8.430583000E0,8.859322405E0
2.504359495E0,-7.529764175E-1,2.606088638E0,8.421006203E0,8.847147390E0
2.506872568E0,-7.386112213E-1,2.596511841E0,8.444948196E0,8.865921854E0
2.509385641E0,-7.338228226E-1,2.596511841E0,8.440159798E0,8.860963101E0
2.511898714E0,-7.338228226E-1,2.586935043E0,8.464101791E0,8.880976747E0
2.514411370E0,-7.242460251E-1,2.577358246E0,8.488043785E0,8.900235678E0
2.516923974E0,-7.242460251E-1,2.567781210E0,8.531139374E0,8.938588908E0
2.519436578E0,-7.386112213E-1,2.567781210E0,8.564658165E0,8.971756593E0
2.521949182E0,-7.433996201E-1,2.577358246E0,8.626907349E0,9.034320612E0
2.524461787E0,-7.481880188E-1,2.562992811E0,8.665214539E0,9.067230032E0
2.526974391E0,-7.577648163E-1,2.543839216E0,8.717886925E0,9.113005975E0
2.529486995E0,-7.625532150E-1,2.553416014E0,8.775347710E0,9.171049458E0
2.531999599E0,-7.769184709E-1,2.558204412E0,8.813654900E0,9.210240215E0
2.534512203E0,-7.960720658E-1,2.562992811E0,8.866327286E0,9.263607419E0
2.537024859E0,-7.960720658E-1,2.562992811E0,8.938153267E0,9.332376263E0
2.539537568E0,-7.769184709E-1,2.553416014E0,8.942941666E0,9.332724216E0
2.542050328E0,-7.817068696E-1,2.562992811E0,8.957306862E0,9.349510361E0
2.544563193E0,-7.625532150E-1,2.567781210E0,8.966883659E0,9.358418152E0
2.547076109E0,-7.481880188E-1,2.577358246E0,8.976460457E0,9.369066291E0
2.549589078E0,-7.433996201E-1,2.577358246E0,8.966883659E0,9.359509660E0
2.552102099E0,-7.003039718E-1,2.577358246E0,8.928576469E0,9.319478470E0
2.554615172E0,-6.715735793E-1,2.586935043E0,8.885480881E0,9.278739918E0
2.557128245E0,-6.572083831E-1,2.625242233E0,8.799289703E0,9.206047954E0
2.559641318E0,-6.189011335E-1,2.658761024E0,8.722675323E0,9.139863981E0
2.562154391E0,-5.949591398E-1,2.668337822E0,8.665214539E0,9.086250388E0
2.564667255E0,-5.614402890E-1,2.706645012E0,8.622118950E0,9.054395485E0
2.567180068E0,-5.231330991E-1,2.768894196E0,8.588600159E0,9.039053932E0
2.569692880E0,-5.327098966E-1,2.783259392E0,8.569446564E0,9.025836642E0
2.572205693E0,-5.327098966E-1,2.768894196E0,8.555081367E0,9.007772871E0
2.574718505E0,-5.327098966E-1,2.744952202E0,8.535927773E0,8.982238327E0
2.577231318E0,-5.135562420E-1,2.735375404E0,8.540716171E0,8.982752993E0
2.579744130E0,-4.991910458E-1,2.706645012E0,8.593388557E0,9.023383280E0
2.582256943E0,-4.752490520E-1,2.673126221E0,8.631695747E0,9.048626245E0
2.584769755E0,-4.608838260E-1,2.649184227E0,8.631695747E0,9.040838592E0
2.587282568E0,-4.560954273E-1,2.639607430E0,8.650849342E0,9.056088823E0
2.589795380E0,-4.513070285E-1,2.591723442E0,8.646060944E0,9.037426529E0
2.592308193E0,-4.704606235E-1,2.558204412E0,8.650849342E0,9.033434417E0
2.594821005E0,-4.991910458E-1,2.510320425E0,8.689156532E0,9.058274757E0
2.597333818E0,-5.327098966E-1,2.476801634E0,8.751405716E0,9.110731484E0
2.599846630E0,-5.327098966E-1,2.452859640E0,8.813654900E0,9.164104590E0
2.602359443E0,-5.566518903E-1,2.409764051E0,8.871115685E0,9.209425476E0
2.604872151E0,-5.949591398E-1,2.381033659E0,8.923788071E0,9.255122430E0
2.607384859E0,-6.332663298E-1,2.352303267E0,8.966883659E0,9.291897517E0
2.609897464E0,-6.380547285E-1,2.357091665E0,9.009979248E0,9.335026567E0
2.612410016E0,-6.476315856E-1,2.357091665E0,9.072228432E0,9.395777589E0
2.614922568E0,-6.667851806E-1,2.357091665E0,9.158419609E0,9.480355127E0
2.617435120E0,-6.667851806E-1,2.337938070E0,9.220669746E0,9.535790868E0
2.619947672E0,-6.667851806E-1,2.309207439E0,9.302072525E0,9.607580067E0
2.622460224E0,-6.811503768E-1,2.280477047E0,9.373898506E0,9.671324346E0
2.624972828E0,-6.859387755E-1,2.232593060E0,9.450512886E0,9.734843480E0
2.627485484E0,-6.907271743E-1,2.213439465E0,9.527127266E0,9.805231881E0
2.629998193E0,-7.290344238E-1,2.189497471E0,9.570222855E0,9.844519077E0
2.632510953E0,-7.481880188E-1,2.132036686E0,9.618106842E0,9.879946607E0
2.635023766E0,-7.529764175E-1,2.088941097E0,9.685144424E0,9.936431498E0
2.637536630E0,-7.625532150E-1,2.031480074E0,9.747393608E0,9.985994234E0
2.640049547E0,-7.721300721E-1,2.021903276E0,9.790489197E0,1.002686174E1
2.642562516E0,-8.200140595E-1,2.041056871E0,9.814431190E0,1.005790216E1
2.645075537E0,-8.200140595E-1,2.045845270E0,9.852738380E0,1.009625473E1
2.647588609E0,-9.253589511E-1,2.246958256E0,9.651625633E0,9.952838186E0
2.650101734E0,-1.040280581E0,2.443282843E0,9.579799652E0,9.941045021E0
2.652614859E0,-9.588778019E-1,2.342726469E0,9.766547203E0,1.008926450E1
2.655127984E0,-9.253589511E-1,2.251746655E0,9.910199165E0,1.020483707E1
2.657641109E0,-9.062053561E-1,2.122459888E0,1.002512074E1,1.028732666E1
2.660154234E0,-8.535329103E-1,1.978807688E0,1.009694672E1,1.032436590E1
2.662667359E0,-7.960720658E-1,1.863885999E0,1.014961910E1,1.035000337E1
2.665180484E0,-7.098808289E-1,1.801636815E0,1.014004230E1,1.032328843E1
2.667693662E0,-6.380547285E-1,1.787271619E0,1.008736992E1,1.026433074E1
2.670206891E0,-7.912836671E-1,2.069787264E0,9.766547203E0,1.001476877E1
2.672720120E0,-9.062053561E-1,2.290053844E0,9.632472038E0,9.942337367E0
2.675233349E0,-8.295909166E-1,2.251746655E0,9.742605209E0,1.003378993E1
2.677746578E0,-8.295909166E-1,2.151190281E0,9.833584785E0,1.010025893E1
2.680259807E0,-8.631097078E-1,2.060210466E0,9.881468773E0,1.013078727E1
2.682773037E0,-9.397241473E-1,1.993172884E0,9.910199165E0,1.015223459E1
2.685286318E0,-9.923965931E-1,1.964442492E0,9.905410767E0,1.014697234E1
2.687799599E0,-1.011550188E0,1.916558504E0,9.948506355E0,1.018180775E1
2.690312880E0,-1.016338587E0,1.887827992E0,9.948506355E0,1.017691591E1
2.692826162E0,-1.021126986E0,1.868674397E0,9.895833969E0,1.012236011E1
2.695339443E0,-1.006761789E0,1.844732404E0,9.881468773E0,1.010247653E1
2.697852724E0,-1.016338587E0,1.849520802E0,9.857526779E0,1.008089805E1
2.700366005E0,-1.035492182E0,1.820790410E0,9.847949982E0,1.006824913E1
2.702879287E0,-1.040280581E0,1.811213613E0,9.862315178E0,1.008106835E1
2.705392568E0,-1.001973391E0,1.796848416E0,9.876680374E0,1.008867831E1
2.707905849E0,-9.780313969E-1,1.753752708E0,9.871891975E0,1.007404810E1
2.710419182E0,-9.732429981E-1,1.744175911E0,9.876680374E0,1.007661485E1
2.712932516E0,-9.636662006E-1,1.739387512E0,9.881468773E0,1.007956083E1
2.715445849E0,-9.301473498E-1,1.753752708E0,9.862315178E0,1.006012342E1
2.717959182E0,-9.062053561E-1,1.782483220E0,9.852738380E0,1.005360175E1
2.720472516E0,-8.822633028E-1,1.816002011E0,9.828796387E0,1.003401666E1
2.722985849E0,-8.678981066E-1,1.868674397E0,9.790489197E0,1.000494227E1
2.725499182E0,-8.200140595E-1,1.902193308E0,9.780912399E0,9.997850259E0
2.728012516E0,-7.625532150E-1,1.950077295E0,9.790489197E0,1.001189131E1
2.730525849E0,-7.194576263E-1,1.983596087E0,9.742605209E0,9.968481779E0
2.733039182E0,-7.003039718E-1,2.026691675E0,9.709086418E0,9.943051034E0
2.735552516E0,-6.811503768E-1,2.069787264E0,9.656414032E0,9.899207903E0
2.738065849E0,-6.763619781E-1,2.098517895E0,9.622895241E0,9.872251805E0
2.740579182E0,-6.619967818E-1,2.117671490E0,9.603741646E0,9.856704615E0
2.743092412E0,-6.859387755E-1,2.146401882E0,9.555857658E0,9.817941160E0
2.745605380E0,-7.003039718E-1,2.112883091E0,9.546280861E0,9.802355782E0
2.748118349E0,-7.050924301E-1,2.108094692E0,9.469666481E0,9.727065427E0
2.750631318E0,-7.050924301E-1,2.103306293E0,9.431359291E0,9.688735252E0
2.753144287E0,-7.050924301E-1,2.079364061E0,9.426570892E0,9.678902263E0
2.755657255E0,-7.338228226E-1,2.069787264E0,9.407417297E0,9.660332057E0
2.758170224E0,-7.433996201E-1,2.002749681E0,9.431359291E0,9.670273386E0
2.760683193E0,-7.242460251E-1,1.926135302E0,9.493608475E0,9.714068734E0
2.763196162E0,-7.050924301E-1,1.844732404E0,9.541492462E0,9.743729850E0
2.765708974E0,-6.811503768E-1,1.792060018E0,9.589376450E0,9.779140332E0
2.768221787E0,-6.715735793E-1,1.748964310E0,9.627683640E0,9.808270974E0
2.770734599E0,-6.811503768E-1,1.696291924E0,9.661202431E0,9.832609243E0
2.773247412E0,-6.907271743E-1,1.677138329E0,9.694721222E0,9.862936509E0
2.775760224E0,-6.811503768E-1,1.634042621E0,9.756970406E0,9.916276147E0
2.778273037E0,-6.619967818E-1,1.634042621E0,9.756970406E0,9.914978897E0
2.780785849E0,-6.524199843E-1,1.624465823E0,9.785700798E0,9.941050304E0
2.783298714E0,-6.093243361E-1,1.552639842E0,9.886257172E0,1.002596866E1
2.785811630E0,-5.758054852E-1,1.394622445E0,1.002990913E1,1.014276101E1
2.788324599E0,-5.327098966E-1,1.246181965E0,1.014483070E1,1.023495673E1
2.790837620E0,-5.518634915E-1,1.183932781E0,1.016877270E1,1.025232600E1
2.793350693E0,-5.614402890E-1,1.193509579E0,1.016877270E1,1.025395624E1
2.795863818E0,-5.470750928E-1,1.217451572E0,1.017356110E1,1.026074193E1
2.798376995E0,-5.422866940E-1,1.265335560E0,1.019271564E1,1.028526136E1
2.800890172E0,-5.422866940E-1,1.341950059E0,1.019750404E1,1.029970842E1
2.803403349E0,-5.518634915E-1,1.423352957E0,1.025017643E1,1.036323327E1
2.805916526E0,-5.853823423E-1,1.499967337E0,1.031721401E1,1.044210130E1
2.808429703E0,-6.380547285E-1,1.576581836E0,1.033157921E1,1.047063766E1
2.810942776E0,-6.763619781E-1,1.634042621E0,1.037467480E1,1.052432601E1
2.813455849E0,-7.050924301E-1,1.672349930E0,1.036509800E1,1.052279270E1
2.815968870E0,-6.907271743E-1,1.725022316E0,1.032679081E1,1.049263620E1
2.818481891E0,-7.098808289E-1,1.758541107E0,1.031721401E1,1.049005732E1
2.820994912E0,-6.667851806E-1,1.796848416E0,1.029806042E1,1.047488974E1
2.823507932E0,-6.332663298E-1,1.816002011E0,1.025975323E1,1.043845898E1
2.826020953E0,-6.715735793E-1,1.835155606E0,1.024538803E1,1.043009027E1
2.828533974E0,-7.577648163E-1,1.820790410E0,1.020708084E1,1.039586382E1
2.831046995E0,-7.960720658E-1,1.820790410E0,1.012088871E1,1.031413577E1
2.833560068E0,-8.200140595E-1,1.825578809E0,1.001554394E1,1.021353423E1
2.836073193E0,-7.960720658E-1,1.816002011E0,9.914987564E0,1.011130914E1
2.838586318E0,-7.864952683E-1,1.835155606E0,9.828796387E0,1.002953684E1
2.841099443E0,-7.625532150E-1,1.863885999E0,9.742605209E0,9.948563448E0
2.843612568E0,-7.625532150E-1,1.878251195E0,9.694721222E0,9.904389660E0
2.846125693E0,-7.433996201E-1,1.911770105E0,9.661202431E0,9.876555085E0
2.848638818E0,-7.577648163E-1,1.950077295E0,9.627683640E0,9.852375411E0
2.851151943E0,-7.721300721E-1,1.993172884E0,9.570222855E0,9.806023072E0
2.853665068E0,-7.817068696E-1,2.026691675E0,9.507973671E0,9.752953814E0
2.856178193E0,-7.912836671E-1,2.074575663E0,9.450512886E0,9.707841564E0
2.858691266E0,-7.817068696E-1,2.098517895E0,9.397840500E0,9.660965223E0
2.861204287E0,-7.577648163E-1,2.112883091E0,9.349956512E0,9.615621106E0
2.863717307E0,-7.481880188E-1,2.117671490E0,9.302072525E0,9.569371511E0
2.866230328E0,-7.146692276E-1,2.122459888E0,9.235034943E0,9.502707955E0
2.868743349E0,-6.763619781E-1,2.112883091E0,9.211092949E0,9.474490688E0
2.871256370E0,-6.476315856E-1,2.084152699E0,9.196727753E0,9.452138409E0
2.873769443E0,-6.045359373E-1,2.064998865E0,9.201516151E0,9.449739864E0
2.876282516E0,-5.566518903E-1,2.050633669E0,9.172784805E0,9.415675273E0
2.878795589E0,-5.183446407E-1,2.041056871E0,9.134477615E0,9.374074654E0
2.881308662E0,-4.944026470E-1,2.036268473E0,9.158419609E0,9.395077062E0
2.883821734E0,-4.896142483E-1,2.036268473E0,9.167996407E0,9.404162351E0
2.886334807E0,-4.848258495E-1,2.036268473E0,9.167996407E0,9.403914265E0
2.888847880E0,-4.656722248E-1,2.026691675E0,9.211092949E0,9.442910731E0
2.891360953E0,-4.608838260E-1,2.026691675E0,9.235034943E0,9.466032085E0
2.893874078E0,-4.513070285E-1,2.021903276E0,9.254188538E0,9.483236598E0
2.896387255E0,-4.560954273E-1,2.031480074E0,9.282918930E0,9.513543934E0
2.898900432E0,-4.560954273E-1,2.041056871E0,9.297284126E0,9.529607983E0
2.901413609E0,-4.417302012E-1,2.041056871E0,9.311649323E0,9.542947754E0
2.903926787E0,-4.560954273E-1,2.026691675E0,9.330802917E0,9.559256523E0
2.906440016E0,-4.465186298E-1,2.050633669E0,9.335591316E0,9.568581010E0
2.908953297E0,-4.225766063E-1,2.055422068E0,9.330802917E0,9.563849327E0
2.911466578E0,-4.129997790E-1,2.060210466E0,9.321226120E0,9.555118647E0
2.913979859E0,-4.177882075E-1,2.060210466E0,9.345168114E0,9.578683690E0
2.916492724E0,-4.321534038E-1,2.084152699E0,9.330802917E0,9.570492784E0
2.919005432E0,-4.273650050E-1,2.108094692E0,9.316437721E0,9.561522676E0
2.921518141E0,-4.417302012E-1,2.098517895E0,9.321226120E0,9.564735193E0
2.924030849E0,-4.465186298E-1,2.108094692E0,9.321226120E0,9.567063212E0
2.926543557E0,-4.656722248E-1,2.122459888E0,9.302072525E0,9.552499142E0
2.929056318E0,-4.752490520E-1,2.132036686E0,9.311649323E0,9.564426548E0
2.931569130E0,-4.896142483E-1,2.146401882E0,9.321226120E0,9.577683412E0
2.934081995E0,-4.944026470E-1,2.151190281E0,9.321226120E0,9.579003601E0
2.936594912E0,-5.087678432E-1,2.165555477E0,9.306860924E0,9.569019568E0
2.939107880E0,-5.279214978E-1,2.170343876E0,9.287707329E0,9.552518049E0
2.941620901E0,-5.327098966E-1,2.179920673E0,9.292495728E0,9.559618759E0
2.944133974E0,-5.231330991E-1,2.165555477E0,9.239823341E0,9.504611204E0
2.946647099E0,-4.944026470E-1,2.155978680E0,9.215881348E0,9.477612941E0
2.949160224E0,-5.135562420E-1,2.165555477E0,9.297284126E0,9.559961436E0
2.951673349E0,-5.279214978E-1,2.165555477E0,9.335591316E0,9.597999628E0
2.954185641E0,-5.327098966E-1,2.184709072E0,9.340379715E0,9.607259067E0
2.956697932E0,-5.279214978E-1,2.184709072E0,9.340379715E0,9.606994746E0
2.959210224E0,-5.279214978E-1,2.179920673E0,9.373898506E0,9.638502397E0
2.961722516E0,-5.422866940E-1,2.199074268E0,9.407417297E0,9.676233911E0
2.964234859E0,-5.279214978E-1,2.203862667E0,9.397840500E0,9.667218722E0
2.966747255E0,-5.135562420E-1,2.194285870E0,9.436147690E0,9.701521206E0
2.969259703E0,-5.231330991E-1,2.194285870E0,9.474454880E0,9.739294327E0
2.971772255E0,-5.087678432E-1,2.203862667E0,9.498396873E0,9.763984767E0
2.974284912E0,-4.991910458E-1,2.213439465E0,9.527127266E0,9.793603009E0
2.976797672E0,-4.848258495E-1,2.203862667E0,9.570222855E0,9.832661504E0
2.979310589E0,-4.848258495E-1,2.203862667E0,9.608530045E0,9.869950171E0
2.981823662E0,-4.800374508E-1,2.199074268E0,9.579799652E0,9.840677058E0
2.984336891E0,-4.752490520E-1,2.199074268E0,9.575011253E0,9.835783131E0
2.986850276E0,-4.656722248E-1,2.184709072E0,9.608530045E0,9.864768318E0
2.989363766E0,-4.417302012E-1,2.194285870E0,9.642048836E0,9.898440372E0
2.991877359E0,-4.177882075E-1,2.194285870E0,9.651625633E0,9.906730784E0
2.994391005E0,-3.938461840E-1,2.184709072E0,9.637260437E0,9.889633829E0
2.996904703E0,-3.794809580E-1,2.170343876E0,9.632472038E0,9.881240606E0
2.999418453E0,-3.555389643E-1,2.189497471E0,9.665990829E0,9.917241847E0
3.001932203E0,-3.603273630E-1,2.179920673E0,9.665990829E0,9.915304769E0
3.004445953E0,-3.411737382E-1,2.165555477E0,9.632472038E0,9.878792822E0
3.006958922E0,-3.028665185E-1,2.170343876E0,9.618106842E0,9.864588177E0
3.009471891E0,-2.932897210E-1,2.170343876E0,9.642048836E0,9.887644672E0
3.011984859E0,-2.789244950E-1,2.155978680E0,9.656414032E0,9.898099560E0
3.014497828E0,-2.645592988E-1,2.170343876E0,9.651625633E0,9.896174085E0
3.017010797E0,-2.406172752E-1,2.189497471E0,9.670779228E0,9.918455864E0
3.019523766E0,-2.358288616E-1,2.175132275E0,9.646837234E0,9.891829168E0
3.022036734E0,-2.214636505E-1,2.189497471E0,9.656414032E0,9.904003094E0
3.024549703E0,-2.214636505E-1,2.184709072E0,9.661202431E0,9.907614864E0
3.027062672E0,-1.975216419E-1,2.194285870E0,9.694721222E0,9.941907505E0
3.029575641E0,-1.640028208E-1,2.175132275E0,9.699509621E0,9.941759614E0
3.032088609E0,-1.592144072E-1,2.218227863E0,9.704298019E0,9.955866820E0
3.034601630E0,-1.496376097E-1,2.237381458E0,9.694721222E0,9.950672680E0
3.037114651E0,-1.352723986E-1,2.237381458E0,9.675567627E0,9.931806649E0
3.039627672E0,-1.304839998E-1,2.242169857E0,9.670779228E0,9.928158068E0
3.042140693E0,-1.209071875E-1,2.251746655E0,9.675567627E0,9.934867410E0
3.044653714E0,-1.304839998E-1,2.280477047E0,9.689932823E0,9.955521069E0
3.047166734E0,-1.209071875E-1,2.280477047E0,9.670779228E0,9.936758274E0
3.049679755E0,-1.113303825E-1,2.299630642E0,9.656414032E0,9.927085549E0
3.052192776E0,-9.696517140E-2,2.299630642E0,9.642048836E0,9.912961671E0
3.054705797E0,-1.017535701E-1,2.290053844E0,9.608530045E0,9.878185563E0
3.057218818E0,-1.017535701E-1,2.280477047E0,9.594164848E0,9.861994144E0
3.059731839E0,-1.113303825E-1,2.294842243E0,9.646837234E0,9.916660930E0
3.062244859E0,-1.065419763E-1,2.304419041E0,9.670779228E0,9.942115931E0
3.064757880E0,-1.065419763E-1,2.313995838E0,9.699509621E0,9.972282327E0
3.067270901E0,-8.738835901E-2,2.318784237E0,9.723451614E0,9.996494804E0
3.069783922E0,-6.344634295E-2,2.309207439E0,9.728240013E0,9.998755832E0
3.072296943E0,-5.386953801E-2,2.299630642E0,9.728240013E0,9.996492223E0
3.074809964E0,-5.386953801E-2,2.309207439E0,9.752182007E0,1.002199555E1
3.077323037E0,-3.950432688E-2,2.290053844E0,9.795277596E0,1.005949156E1
3.079836162E0,-2.513911761E-2,2.285265446E0,9.843161583E0,1.010499382E1
3.082349287E0,8.379706182E-3,2.280477047E0,9.838373184E0,1.009921941E1
3.084862412E0,3.232172132E-2,2.270900249E0,9.843161583E0,1.010177522E1
3.087375537E0,1.795651205E-2,2.266111851E0,9.857526779E0,1.011466359E1
3.089888662E0,-1.197100850E-3,2.266111851E0,9.857526779E0,1.011464772E1
3.092401787E0,1.316810958E-2,2.251746655E0,9.852738380E0,1.010677941E1
3.094914912E0,2.753331885E-2,2.232593060E0,9.833584785E0,1.008387919E1
3.097428037E0,1.795651205E-2,2.242169857E0,9.852738380E0,1.010465743E1
3.099941162E0,-4.908113554E-2,2.313995838E0,9.847949982E0,1.011627918E1
3.102454287E0,-1.687912196E-1,2.438494444E0,9.780912399E0,1.008171578E1
3.104967412E0,-9.217676520E-2,2.404975653E0,9.819219589E0,1.010987032E1
3.107480537E0,5.147533491E-2,2.323572636E0,9.953294754E0,1.022104280E1
3.109993662E0,1.759738177E-1,2.270900249E0,9.977236748E0,1.023392436E1
3.112506787E0,2.094926536E-1,2.266111851E0,9.886257172E0,1.014481301E1
3.115019912E0,2.430114746E-1,2.261323452E0,9.785700798E0,1.004652071E1
3.117533037E0,2.430114746E-1,2.242169857E0,9.752182007E0,1.000956713E1
3.120046162E0,2.238578647E-1,2.223016262E0,9.766547203E0,1.001885013E1
3.122559287E0,2.094926536E-1,2.160767078E0,9.752182007E0,9.990888621E0
3.125072412E0,1.568202078E-1,2.160767078E0,9.661202431E0,9.901128186E0
3.127585537E0,-1.197100850E-3,2.199074268E0,9.560646057E0,9.810294700E0
3.130098662E0,-9.217676520E-2,2.251746655E0,9.555857658E0,9.818007697E0
3.132611787E0,-7.302315533E-2,2.251746655E0,9.699509621E0,9.957719732E0
3.135124912E0,-1.077390742E-2,2.242169857E0,9.828796387E0,1.008130349E1
3.137638037E0,6.105214357E-2,2.232593060E0,9.871891975E0,1.012138579E1
3.140151162E0,1.137245819E-1,2.251746655E0,9.824007988E0,1.007940619E1
3.142664287E0,1.280897856E-1,2.237381458E0,9.694721222E0,9.950371971E0
3.145177464E0,9.457096457E-2,2.232593060E0,9.565434456E0,9.822980798E0
3.147690693E0,8.499415964E-2,2.266111851E0,9.464878082E0,9.732749048E0
3.150203974E0,1.041477770E-1,2.290053844E0,9.402628899E0,9.678048542E0
3.152717307E0,1.280897856E-1,2.333149672E0,9.416994095E0,9.702565236E0
3.155230693E0,1.520318091E-1,2.371456861E0,9.369110107E0,9.665771853E0
3.157744130E0,1.616086215E-1,2.381033659E0,9.354744911E0,9.654361242E0
3.160257620E0,1.520318091E-1,2.404975653E0,9.340379715E0,9.646228008E0
3.162771109E0,9.935937077E-2,2.419340849E0,9.340379715E0,9.649133414E0
3.165284599E0,6.105214357E-2,2.433706045E0,9.378686905E0,9.689500531E0
3.167798089E0,8.379706182E-3,2.462436438E0,9.416994095E0,9.733624259E0
3.170311578E0,-2.035071515E-2,2.457648039E0,9.436147690E0,9.750965658E0
3.172825068E0,-3.471592441E-2,2.457648039E0,9.440936089E0,9.755640077E0
3.175338557E0,-2.035071515E-2,2.462436438E0,9.445724487E0,9.761440388E0
3.177852047E0,1.795651205E-2,2.448071241E0,9.450512886E0,9.762457121E0
3.180365537E0,4.668693244E-2,2.448071241E0,9.469666481E0,9.781094813E0
3.182879026E0,5.626374111E-2,2.433706045E0,9.460089684E0,9.768284780E0
3.185392516E0,2.753331885E-2,2.443282843E0,9.426570892E0,9.738101864E0
3.187906005E0,-3.950432688E-2,2.462436438E0,9.412205696E0,9.729068294E0
3.190419495E0,-6.344634295E-2,2.438494444E0,9.383475304E0,9.695354009E0
3.192932724E0,-7.781155407E-2,2.438494444E0,9.383475304E0,9.695458657E0
3.195445797E0,-8.738835901E-2,2.443282843E0,9.407417297E0,9.719916048E0
3.197958870E0,-8.738835901E-2,2.424129248E0,9.402628899E0,9.710482457E0
3.200471943E0,-9.696517140E-2,2.419340849E0,9.416994095E0,9.723291118E0
3.202984859E0,-8.738835901E-2,2.404975653E0,9.426570892E0,9.728914811E0
3.205497464E0,-8.738835901E-2,2.395398855E0,9.402628899E0,9.703350071E0
3.208009755E0,-8.259996027E-2,2.400187254E0,9.354744911E0,9.658104056E0
3.210522047E0,-9.217676520E-2,2.390610456E0,9.330802917E0,9.632621554E0
3.213034339E0,-9.696517140E-2,2.395398855E0,9.311649323E0,9.615308161E0
3.215546682E0,-8.738835901E-2,2.409764051E0,9.287707329E0,9.595629575E0
3.218059078E0,-1.161187813E-1,2.414552450E0,9.287707329E0,9.597137830E0
3.220571578E0,-1.161187813E-1,2.433706045E0,9.297284126E0,9.611238256E0
3.223084182E0,-1.209071875E-1,2.457648039E0,9.311649323E0,9.631275385E0
3.225596891E0,-1.304839998E-1,2.472013235E0,9.388263702E0,9.709138523E0
3.228109755E0,-1.256955862E-1,2.481590033E0,9.397840500E0,9.720776437E0
3.230622776E0,-1.017535701E-1,2.491166830E0,9.421782494E0,9.746089027E0
3.233135953E0,-5.386953801E-2,2.486378431E0,9.402628899E0,9.725965753E0
3.235649287E0,-4.429273307E-2,2.472013235E0,9.412205696E0,9.731517217E0
3.238162724E0,-5.386953801E-2,2.467224836E0,9.388263702E0,9.707192986E0
3.240676266E0,-8.738835901E-2,2.467224836E0,9.383475304E0,9.702805980E0
3.243189912E0,-1.400607973E-1,2.476801634E0,9.393052101E0,9.715121777E0
3.245703609E0,-1.927332431E-1,2.495955229E0,9.402628899E0,9.730178252E0
3.248217307E0,-2.070984542E-1,2.481590033E0,9.397840500E0,9.722169764E0
3.250731005E0,-2.023100406E-1,2.476801634E0,9.393052101E0,9.716218578E0
3.253244703E0,-1.879448295E-1,2.472013235E0,9.412205696E0,9.733231157E0
3.255757776E0,-1.879448295E-1,2.476801634E0,9.445724487E0,9.766861353E0
3.258270641E0,-1.544260085E-1,2.438494444E0,9.402628899E0,9.714912905E0
3.260783141E0,-1.113303825E-1,2.419340849E0,9.373898506E0,9.681713578E0
3.263295641E0,-1.065419763E-1,2.419340849E0,9.316437721E0,9.626036212E0
3.265808141E0,-8.259996027E-2,2.419340849E0,9.287707329E0,9.597996683E0
3.268320641E0,-7.781155407E-2,2.409764051E0,9.282918930E0,9.590912432E0
3.270833193E0,-4.908113554E-2,2.424129248E0,9.278130531E0,9.589708949E0
3.273345797E0,-2.992752194E-2,2.424129248E0,9.258976936E0,9.571099841E0
3.275858505E0,-4.908113554E-2,2.448071241E0,9.282918930E0,9.600419034E0
3.278371318E0,-5.386953801E-2,2.452859640E0,9.278130531E0,9.597037485E0
3.280884234E0,-2.513911761E-2,2.457648039E0,9.278130531E0,9.598144196E0
3.283397255E0,-3.471592441E-2,2.481590033E0,9.292495728E0,9.618210391E0
3.285910380E0,-3.950432688E-2,2.486378431E0,9.306860924E0,9.633343062E0
3.288423662E0,-5.386953801E-2,2.505532026E0,9.369110107E0,9.698495598E0
3.290937099E0,-9.696517140E-2,2.510320425E0,9.388263702E0,9.718570174E0
3.293450641E0,-1.352723986E-1,2.529474020E0,9.421782494E0,9.756358070E0
3.295964287E0,-1.304839998E-1,2.548627615E0,9.445724487E0,9.784387558E0
3.298478037E0,-1.352723986E-1,2.534262419E0,9.455301285E0,9.789969715E0
3.300991891E0,-1.256955862E-1,2.543839216E0,9.450512886E0,9.787702036E0
3.303505797E0,-1.352723986E-1,2.548627615E0,9.464878082E0,9.802944377E0
3.306019703E0,-1.448491961E-1,2.567781210E0,9.527127266E0,9.868162725E0
3.308533609E0,-1.161187813E-1,2.562992811E0,9.541492462E0,9.880409613E0
3.311047516E0,-8.738835901E-2,2.558204412E0,9.555857658E0,9.892747956E0
3.313560901E0,-8.738835901E-2,2.553416014E0,9.589376450E0,9.923895946E0
3.316074182E0,-9.696517140E-2,2.543839216E0,9.637260437E0,9.967813649E0
3.318587359E0,-6.344634295E-2,2.524685621E0,9.670779228E0,9.995100490E0
3.321100537E0,-5.865794048E-2,2.524685621E0,9.728240013E0,1.005067819E1
3.323613714E0,-4.908113554E-2,2.539050817E0,9.795277596E0,1.011912304E1
3.326126734E0,-4.429273307E-2,2.524685621E0,9.824007988E0,1.014332945E1
3.328639755E0,-3.471592441E-2,2.500743628E0,9.876680374E0,1.018841200E1
3.331152776E0,-1.556231081E-2,2.481590033E0,9.919775963E0,1.022548221E1
3.333665797E0,-1.197100850E-3,2.481590033E0,9.972448349E0,1.027657611E1
3.336178818E0,-1.556231081E-2,2.491166830E0,1.004427433E1,1.034860383E1
3.338691839E0,-2.513911761E-2,2.495955229E0,1.007300472E1,1.037766104E1
3.341204912E0,-2.035071515E-2,2.491166830E0,1.010652351E1,1.040904145E1
3.343718037E0,-2.992752194E-2,2.486378431E0,1.014004230E1,1.044047084E1
3.346231214E0,-3.950432688E-2,2.505532026E0,1.013525391E1,1.044043213E1
3.348744443E0,-5.386953801E-2,2.653972626E0,1.008736992E1,1.043079597E1
3.351257724E0,-7.302315533E-2,2.610877037E0,1.005863953E1,1.039222019E1
3.353771057E0,-1.113303825E-1,2.553416014E0,1.013525391E1,1.045254512E1
3.356284443E0,-2.070984542E-1,2.572569609E0,1.020708084E1,1.052831912E1
3.358797880E0,-4.704606235E-1,2.955641985E0,1.002512074E1,1.046232281E1
3.361311318E0,-4.369418025E-1,3.104082584E0,9.958083153E0,1.043981163E1
3.363824755E0,-3.699041605E-1,3.180696964E0,9.967659950E0,1.046937950E1
3.366338193E0,-4.177882075E-1,3.056198359E0,9.986813545E0,1.045233659E1
3.368851214E0,-4.656722248E-1,2.840720415E0,1.005863953E1,1.046244580E1
3.371364130E0,-4.417302012E-1,2.630030632E0,1.012088871E1,1.046635443E1
3.373877047E0,-3.986345828E-1,2.491166830E0,1.012088871E1,1.043059011E1
3.376389964E0,-4.225766063E-1,2.409764051E0,1.004427433E1,1.033793889E1
3.378902880E0,-3.507505357E-1,2.376245260E0,9.986813545E0,1.027161196E1
3.381415797E0,-2.501940727E-1,2.318784237E0,9.929352760E0,1.019957860E1
3.383928714E0,-1.735796183E-1,2.256535053E0,9.924564362E0,1.017934468E1
3.386441630E0,-8.259996027E-2,2.175132275E0,9.948506355E0,1.018385005E1
3.388954599E0,2.274491638E-2,2.103306293E0,9.982025146E0,1.020123722E1
3.391467620E0,7.541735470E-2,1.993172884E0,1.001075554E1,1.020752920E1
3.393980693E0,6.105214357E-2,1.921346903E0,1.002512074E1,1.020775916E1
3.396493818E0,-3.471592441E-2,1.873462796E0,1.001075554E1,1.018461067E1
3.399006995E0,-9.696517140E-2,1.839944005E0,9.958083153E0,1.012710305E1
3.401520224E0,-1.496376097E-1,1.849520802E0,9.938929558E0,1.011065969E1
3.404033505E0,-2.262520641E-1,1.883039594E0,9.924564362E0,1.010415785E1
3.406546839E0,-2.310404629E-1,1.902193308E0,9.910199165E0,1.009374889E1
3.409060224E0,-2.214636505E-1,1.945288897E0,9.938929558E0,1.012993168E1
3.411573662E0,-1.927332431E-1,1.978807688E0,9.938929558E0,1.013583478E1
3.414087151E0,-1.783680320E-1,2.002749681E0,9.938929558E0,1.014027328E1
3.416600641E0,-1.496376097E-1,1.983596087E0,9.934141159E0,1.013134766E1
3.419114130E0,-1.113303825E-1,1.964442492E0,9.929352760E0,1.012242436E1
3.421627620E0,-1.209071875E-1,1.930923700E0,9.895833969E0,1.008318476E1
3.424141109E0,-1.352723986E-1,1.897404790E0,9.876680374E0,1.005819361E1
3.426654599E0,-1.640028208E-1,1.935712099E0,9.852738380E0,1.004242659E1
3.429167828E0,-1.735796183E-1,1.978807688E0,9.828796387E0,1.002751456E1
3.431681005E0,-1.831564307E-1,2.036268473E0,9.795277596E0,1.000636791E1
3.434194130E0,-2.070984542E-1,2.108094692E0,9.780912399E0,1.000765709E1
3.436707099E0,-2.645592988E-1,2.179920673E0,9.776124001E0,1.001971288E1
3.439220068E0,-2.932897210E-1,2.223016262E0,9.728240013E0,9.983309768E0
3.441733037E0,-2.837128937E-1,2.275688648E0,9.656414032E0,9.924997924E0
3.444246005E0,-2.741360962E-1,2.309207439E0,9.589376450E0,9.867306131E0
3.446758974E0,-3.268085420E-1,2.328361034E0,9.555857658E0,9.840857916E0
3.449271943E0,-3.363853395E-1,2.333149672E0,9.517550468E0,9.805126690E0
3.451784912E0,-3.268085420E-1,2.313995838E0,9.493608475E0,9.777012961E0
3.454297880E0,-3.124433160E-1,2.251746655E0,9.450512886E0,9.720091442E0
3.456810849E0,-2.454056740E-1,2.050633669E0,9.426570892E0,9.650158609E0
3.459323818E0,-3.651157618E-1,2.103306293E0,9.436147690E0,9.674610592E0
3.461836839E0,-5.087678432E-1,2.280477047E0,9.258976936E0,9.549244692E0
3.464349912E0,-5.231330991E-1,2.428917646E0,9.167996407E0,9.498708717E0
3.466863037E0,-6.141127348E-1,2.529474020E0,8.976460457E0,9.346240720E0
3.469376214E0,-6.572083831E-1,2.539050817E0,8.923788071E0,9.301220105E0
3.471889391E0,-6.524199843E-1,2.491166830E0,8.976460457E0,9.338544123E0
3.474402568E0,-6.476315856E-1,2.539050817E0,9.091382027E0,9.461470968E0
3.476915745E0,-6.428431273E-1,2.706645012E0,9.172784805E0,9.585361526E0
3.479428922E0,-5.422866940E-1,2.749740601E0,9.225458145E0,9.641795798E0
3.481942099E0,-5.758054852E-1,2.850297213E0,9.177573204E0,9.627232005E0
3.484455276E0,-6.955155730E-1,2.989160776E0,9.139266014E0,9.640799102E0
3.486968297E0,-7.194576263E-1,2.979583979E0,9.124900818E0,9.625972933E0
3.489481057E0,-6.859387755E-1,2.946065187E0,9.100958824E0,9.590477757E0
3.491993818E0,-6.332663298E-1,2.898181200E0,9.081805229E0,9.554039289E0
3.494506578E0,-5.614402890E-1,2.850297213E0,9.053074837E0,9.507763848E0
3.497019339E0,-5.183446407E-1,2.778470993E0,8.995614052E0,9.429191609E0
3.499532099E0,-4.656722248E-1,2.630030632E0,9.019556046E0,9.406715846E0
3.502044859E0,-4.129997790E-1,2.505532026E0,9.081805229E0,9.430134982E0
3.504557672E0,-3.746925592E-1,2.395398855E0,9.115324020E0,9.432256474E0
3.507070537E0,-3.746925592E-1,2.309207439E0,9.091382027E0,9.387548171E0
3.509583453E0,-3.411737382E-1,2.256535053E0,9.029132843E0,9.313087021E0
3.512096474E0,-3.076549172E-1,2.208651066E0,8.952518463E0,9.226070556E0
3.514609599E0,-2.885012925E-1,2.179920673E0,8.904634476E0,9.172120926E0
3.517122828E0,-2.789244950E-1,2.165555477E0,8.923788071E0,9.187024705E0
3.519636162E0,-2.549824715E-1,2.155978680E0,8.938153267E0,9.198034787E0
3.522149599E0,-2.214636505E-1,2.136825085E0,9.000402451E0,9.253232509E0
3.524663089E0,-1.975216419E-1,2.155978680E0,9.067440033E0,9.322324153E0
3.527176630E0,-1.687912196E-1,2.170343876E0,9.105747223E0,9.362345620E0
3.529690172E0,-1.017535701E-1,2.160767078E0,9.129689217E0,9.382456680E0
3.532203714E0,-6.344634295E-2,2.112883091E0,9.144054413E0,9.385202795E0
3.534717047E0,-2.992752194E-2,2.098517895E0,9.163208008E0,9.400481584E0
3.537230068E0,-5.985504016E-3,2.079364061E0,9.139266014E0,9.372831696E0
3.539742984E0,2.753331885E-2,2.050633669E0,9.124900818E0,9.352522198E0
3.542255901E0,5.626374111E-2,2.026691675E0,9.115324020E0,9.338082070E0
3.544768818E0,8.020575345E-2,2.012326479E0,9.134477615E0,9.353853330E0
3.547281734E0,8.978256583E-2,1.988384485E0,9.144054413E0,9.358176365E0
3.549794703E0,9.457096457E-2,1.978807688E0,9.182361603E0,9.393635512E0
3.552307724E0,9.935937077E-2,1.969230890E0,9.215881348E0,9.424447549E0
3.554820797E0,9.457096457E-2,1.954865694E0,9.235034943E0,9.440143746E0
3.557333870E0,9.457096457E-2,1.930923700E0,9.254188538E0,9.453962952E0
3.559846943E0,9.457096457E-2,1.935712099E0,9.278130531E0,9.478377032E0
3.562360016E0,1.041477770E-1,1.921346903E0,9.306860924E0,9.503687754E0
3.564873089E0,1.233013868E-1,1.940500498E0,9.297284126E0,9.498433426E0
3.567386109E0,1.424549967E-1,1.954865694E0,9.292495728E0,9.496961101E0
3.569899130E0,1.663970202E-1,1.959654093E0,9.282918930E0,9.488968121E0
3.572412099E0,1.663970202E-1,1.983596087E0,9.273342133E0,9.484577782E0
3.574925016E0,1.759738177E-1,2.002749681E0,9.273342133E0,9.488774809E0
3.577437932E0,1.903390288E-1,2.031480074E0,9.273342133E0,9.495157426E0
3.579950849E0,2.094926536E-1,2.050633669E0,9.249400139E0,9.476306693E0
3.582463766E0,2.238578647E-1,2.064998865E0,9.239823341E0,9.470410130E0
3.584976682E0,2.190694511E-1,2.088941097E0,9.244611740E0,9.480216905E0
3.587489599E0,1.903390288E-1,2.098517895E0,9.239823341E0,9.477042876E0
3.590002516E0,1.711854190E-1,2.093729496E0,9.239823341E0,9.475618346E0
3.592515484E0,1.568202078E-1,2.064998865E0,9.225458145E0,9.455045789E0
3.595028505E0,1.328781992E-1,2.079364061E0,9.244611740E0,9.476510842E0
3.597541578E0,1.089361757E-1,2.079364061E0,9.239823341E0,9.471534056E0
3.600054703E0,8.978256583E-2,2.045845270E0,9.235034943E0,9.459355907E0
3.602567880E0,6.105214357E-2,2.007538080E0,9.220669746E0,9.436879096E0
3.605081109E0,3.232172132E-2,1.988384485E0,9.249400139E0,9.460767436E0
3.607594391E0,8.379706182E-3,1.959654093E0,9.263765335E0,9.468773023E0
3.610107724E0,3.591302549E-3,1.940500498E0,9.321226120E0,9.521071970E0
3.612621109E0,8.379706182E-3,1.906981707E0,9.373898506E0,9.565909400E0
3.615134495E0,8.379706182E-3,1.873462796E0,9.416994095E0,9.601547315E0
3.617647880E0,1.316810958E-2,1.854309201E0,9.460089684E0,9.640120997E0
3.620161266E0,2.753331885E-2,1.839944005E0,9.507973671E0,9.684405782E0
3.622674495E0,3.711012751E-2,1.816002011E0,9.560646057E0,9.731659339E0
3.625187516E0,4.668693244E-2,1.811213613E0,9.603741646E0,9.773153433E0
3.627700276E0,4.668693244E-2,1.811213613E0,9.656414032E0,9.824917627E0
3.630213037E0,5.147533491E-2,1.801636815E0,9.685144424E0,9.851424640E0
3.632725797E0,6.584054977E-2,1.792060018E0,9.718663216E0,9.882723753E0
3.635238557E0,5.626374111E-2,1.796848416E0,9.733028412E0,9.897659921E0
3.637751370E0,6.584054977E-2,1.787271619E0,9.756970406E0,9.919533573E0
3.640264234E0,7.541735470E-2,1.772906303E0,9.785700798E0,9.945291582E0
3.642777151E0,7.541735470E-2,1.782483220E0,9.800065994E0,9.961135864E0
3.645290120E0,7.062894851E-2,1.777694821E0,9.800065994E0,9.960245018E0
3.647803141E0,5.147533491E-2,1.772906303E0,9.785700798E0,9.945138842E0
3.650316162E0,4.189852998E-2,1.777694821E0,9.800065994E0,9.960082723E0
3.652829234E0,3.591302549E-3,1.787271619E0,9.776124001E0,9.938156429E0
3.655342307E0,-1.077390742E-2,1.806425214E0,9.756970406E0,9.922789911E0
3.657854859E0,-4.429273307E-2,1.825578809E0,9.737816811E0,9.907561560E0
3.660367412E0,-6.344634295E-2,1.849520802E0,9.709086418E0,9.883881409E0
3.662879964E0,-7.302315533E-2,1.868674397E0,9.675567627E0,9.854637755E0
3.665392516E0,-9.217676520E-2,1.902193308E0,9.651625633E0,9.837718907E0
3.667905120E0,-1.209071875E-1,1.930923700E0,9.613318443E0,9.806068344E0
3.670417776E0,-1.352723986E-1,1.954865694E0,9.579799652E0,9.778157284E0
3.672930484E0,-1.544260085E-1,1.959654093E0,9.594164848E0,9.793471841E0
3.675443245E0,-1.831564307E-1,1.959654093E0,9.598953247E0,9.798657759E0
3.677956057E0,-1.879448295E-1,1.964442492E0,9.608530045E0,9.809087989E0
3.680468922E0,-2.166752517E-1,1.954865694E0,9.627683640E0,9.826532466E0
3.682981891E0,-2.741360962E-1,1.954865694E0,9.665990829E0,9.865496906E0
3.685494964E0,-3.076549172E-1,1.969230890E0,9.709086418E0,9.911552902E0
3.688008141E0,-3.076549172E-1,1.983596087E0,9.761758804E0,9.966004211E0
3.690521422E0,-3.028665185E-1,1.978807688E0,9.833584785E0,1.003527766E1
3.693034807E0,-3.028665185E-1,2.002749681E0,9.862315178E0,1.006816741E1
3.695548245E0,-3.028665185E-1,2.017114878E0,9.891045570E0,1.009917140E1
3.698061734E0,-2.885012925E-1,2.041056871E0,9.910199165E0,1.012231167E1
3.700575276E0,-2.885012925E-1,2.045845270E0,9.900622368E0,1.011390326E1
3.703088870E0,-2.693476975E-1,2.060210466E0,9.905410767E0,1.012097712E1
3.705602464E0,-2.645592988E-1,2.079364061E0,9.895833969E0,1.011539799E1
3.708116057E0,-2.406172752E-1,2.074575663E0,9.857526779E0,1.007633838E1
3.710629651E0,-2.166752517E-1,2.074575663E0,9.814431190E0,1.003363702E1
3.713142672E0,-2.118868530E-1,2.098517895E0,9.776124001E0,1.000106364E1
3.715655641E0,-1.879448295E-1,2.112883091E0,9.713874817E0,9.942784428E0
3.718168609E0,-1.927332431E-1,2.093729496E0,9.675567627E0,9.901386681E0
3.720681578E0,-1.975216419E-1,2.098517895E0,9.646837234E0,9.874424580E0
3.723194547E0,-2.310404629E-1,2.112883091E0,9.627683640E0,9.859510480E0
3.725707516E0,-2.454056740E-1,2.098517895E0,9.579799652E0,9.810023582E0
3.728220484E0,-2.597708702E-1,2.103306293E0,9.536704063E0,9.769345048E0
3.730733453E0,-2.454056740E-1,2.093729496E0,9.503185272E0,9.734190129E0
3.733246422E0,-2.454056740E-1,2.098517895E0,9.484031677E0,9.716525004E0
3.735759391E0,-2.358288616E-1,2.093729496E0,9.469666481E0,9.701231969E0
3.738272359E0,-2.070984542E-1,2.088941097E0,9.450512886E0,9.680844926E0
3.740785328E0,-1.783680320E-1,2.064998865E0,9.445724487E0,9.670457412E0
3.743298297E0,-1.687912196E-1,2.041056871E0,9.469666481E0,9.688600874E0
3.745811266E0,-1.640028208E-1,2.017114878E0,9.503185272E0,9.716284252E0
3.748324234E0,-1.400607973E-1,1.997961283E0,9.536704063E0,9.744751957E0
3.750837203E0,-1.400607973E-1,1.997961283E0,9.565434456E0,9.772870747E0
3.753350172E0,-1.352723986E-1,1.993172884E0,9.608530045E0,9.814014794E0
3.755863141E0,-1.352723986E-1,1.988384485E0,9.661202431E0,9.864623860E0
3.758376109E0,-1.496376097E-1,1.993172884E0,9.699509621E0,9.903313407E0
3.760889078E0,-1.400607973E-1,2.012326479E0,9.737816811E0,9.944553842E0
3.763402047E0,-1.352723986E-1,1.997961283E0,9.771335602E0,9.974424663E0
3.765915016E0,-1.687912196E-1,2.012326479E0,9.785700798E0,9.991891134E0
3.768427984E0,-2.118868530E-1,2.036268473E0,9.804854393E0,1.001630945E1
3.770940484E0,-2.406172752E-1,2.045845270E0,9.819219589E0,1.003296830E1
3.773452776E0,-2.645592988E-1,2.041056871E0,9.843161583E0,1.005602977E1
3.775965068E0,-2.885012925E-1,2.064998865E0,9.862315178E0,1.008031319E1
3.778477359E0,-3.220201433E-1,2.084152699E0,9.824007988E0,1.004781182E1
3.780989651E0,-3.459621370E-1,2.103306293E0,9.785700798E0,1.001516486E1
3.783501995E0,-3.699041605E-1,2.136825085E0,9.776124001E0,1.001376308E1
3.786014391E0,-3.842693865E-1,2.160767078E0,9.756970406E0,1.000075241E1
3.788526839E0,-3.986345828E-1,2.208651066E0,9.718663216E0,9.974440524E0
3.791039391E0,-4.129997790E-1,2.251746655E0,9.675567627E0,9.942712946E0
3.793552047E0,-4.177882075E-1,2.285265446E0,9.642048836E0,9.917968083E0
3.796064807E0,-4.225766063E-1,2.318784237E0,9.598953247E0,9.884089982E0
3.798577672E0,-4.513070285E-1,2.347514868E0,9.584588051E0,9.878199846E0
3.801090641E0,-4.560954273E-1,2.371456861E0,9.560646057E0,9.860922052E0
3.803603714E0,-4.608838260E-1,2.357091665E0,9.527127266E0,9.825194602E0
3.806116891E0,-4.800374508E-1,2.366668463E0,9.527127266E0,9.828413377E0
3.808630172E0,-4.991910458E-1,2.404975653E0,9.498396873E0,9.810843122E0
3.811143557E0,-4.944026470E-1,2.438494444E0,9.455301285E0,9.777188324E0
3.813656995E0,-4.896142483E-1,2.472013235E0,9.445724487E0,9.776107745E0
3.816170484E0,-5.039794445E-1,2.486378431E0,9.440936089E0,9.775855319E0
3.818683974E0,-5.422866940E-1,2.534262419E0,9.440936089E0,9.790190759E0
3.821197464E0,-5.805938840E-1,2.562992811E0,9.455301285E0,9.813701839E0
3.823710953E0,-6.332663298E-1,2.630030632E0,9.440936089E0,9.820863587E0
3.826224078E0,-6.619967818E-1,2.639607430E0,9.383475304E0,9.770126708E0
3.828736995E0,-4.369418025E-1,2.256535053E0,9.460089684E0,9.735305101E0
3.831249912E0,-3.986345828E-1,2.141613483E0,9.488820076E0,9.735662498E0
3.833762724E0,-4.848258495E-1,2.189497471E0,9.326014519E0,9.591845604E0
3.836275537E0,-5.231330991E-1,2.237381458E0,9.211092949E0,9.493354378E0
3.838788349E0,-5.374982953E-1,2.299630642E0,9.134477615E0,9.434823094E0
3.841301162E0,-5.710170865E-1,2.390610456E0,9.100958824E0,9.427010681E0
3.843814026E0,-5.901707411E-1,2.553416014E0,9.091382027E0,9.461578198E0
3.846326943E0,-6.332663298E-1,2.706645012E0,9.129689217E0,9.543488809E0
3.848839912E0,-6.715735793E-1,2.874239206E0,9.158419609E0,9.622313226E0
3.851352932E0,-7.386112213E-1,2.998737574E0,9.187150002E0,9.692352590E0
3.853865953E0,-7.769184709E-1,3.132812977E0,9.187150002E0,9.737650877E0
3.856378974E0,-8.343793154E-1,3.271676540E0,9.191938400E0,9.792435232E0
3.858892047E0,-9.205705523E-1,3.381809950E0,9.187150002E0,9.832996178E0
3.861405172E0,-9.780313969E-1,3.477577925E0,9.211092949E0,9.894156202E0
3.863918349E0,-1.045069098E0,3.520673513E0,9.220669746E0,9.925122769E0
3.866431526E0,-1.136048675E0,3.549403906E0,9.235034943E0,9.958651770E0
3.868944755E0,-1.212663174E0,3.568557739E0,9.225458145E0,9.965652728E0
3.871457984E0,-1.294066072E0,3.578134537E0,9.211092949E0,9.966036678E0
3.873971214E0,-1.356315255E0,3.582922935E0,9.182361603E0,9.949507145E0
3.876484443E0,-1.404199243E0,3.563769341E0,9.153631210E0,9.922761297E0
3.878997672E0,-1.404199243E0,3.525461912E0,9.148842812E0,9.904644466E0
3.881510901E0,-1.471236944E0,3.463212729E0,9.129689217E0,9.874695223E0
3.884024130E0,-1.552639842E0,3.410540342E0,9.120112419E0,9.859965844E0
3.886537359E0,-1.614889026E0,3.333925962E0,9.163208008E0,9.883689083E0
3.889050589E0,-1.662773132E0,3.228580952E0,9.211092949E0,9.901150578E0
3.891563818E0,-1.696291924E0,3.099294186E0,9.273342133E0,9.923603431E0
3.894077047E0,-1.720233917E0,2.993949175E0,9.326014519E0,9.944721373E0
3.896590276E0,-1.753752708E0,2.888604403E0,9.393052101E0,9.982440169E0
3.899103505E0,-1.753752708E0,2.783259392E0,9.436147690E0,9.993150886E0
3.901616734E0,-1.720233917E0,2.668337822E0,9.464878082E0,9.983143221E0
3.904129964E0,-1.657984734E0,2.582146645E0,9.484031677E0,9.968111733E0
3.906643193E0,-1.562216640E0,2.495955229E0,9.507973671E0,9.953485654E0
3.909156422E0,-1.447294950E0,2.424129248E0,9.484031677E0,9.895348510E0
3.911669651E0,-1.370680451E0,2.357091665E0,9.445724487E0,9.831396498E0
3.914182932E0,-1.274912357E0,2.309207439E0,9.397840500E0,9.761006433E0
3.916696266E0,-1.183932781E0,2.299630642E0,9.349956512E0,9.701117704E0
3.919209599E0,-1.083376288E0,2.294842243E0,9.306860924E0,9.646640107E0
3.921722932E0,-1.030703783E0,2.280477047E0,9.311649323E0,9.642081671E0
3.924236266E0,-9.876081944E-1,2.270900249E0,9.321226120E0,9.644563975E0
3.926749599E0,-9.445125461E-1,2.299630642E0,9.354744911E0,9.679445097E0
3.929262932E0,-9.349357486E-1,2.299630642E0,9.393052101E0,9.715545981E0
3.931776266E0,-9.157821536E-1,2.318784237E0,9.416994095E0,9.741416482E0
3.934289651E0,-8.774749041E-1,2.333149672E0,9.469666481E0,9.792248611E0
3.936803089E0,-8.631097078E-1,2.361880064E0,9.498396873E0,9.825628681E0
3.939316578E0,-8.391677141E-1,2.404975653E0,9.512762070E0,9.847880611E0
3.941830120E0,-8.200140595E-1,2.448071241E0,9.493608475E0,9.838398128E0
3.944343662E0,-8.248024583E-1,2.481590033E0,9.440936089E0,9.796420898E0
3.946857203E0,-8.535329103E-1,2.534262419E0,9.369110107E0,9.743265810E0
3.949370745E0,-8.439561129E-1,2.577358246E0,9.311649323E0,9.698548889E0
3.951884287E0,-8.822633028E-1,2.615665436E0,9.225458145E0,9.629598756E0
3.954397828E0,-8.966285586E-1,2.649184227E0,9.139266014E0,9.557630623E0
3.956911162E0,-9.301473498E-1,2.701856613E0,9.038709641E0,9.479634762E0
3.959424495E0,-9.828197956E-1,2.744952202E0,8.947730064E0,9.410768866E0
3.961937828E0,-1.035492182E0,2.792836189E0,8.880692482E0,9.366903277E0
3.964451162E0,-1.083376288E0,2.811989784E0,8.832808495E0,9.332711108E0
3.966964495E0,-1.126471877E0,2.831143618E0,8.789712906E0,9.302868700E0
3.969477828E0,-1.164779186E0,2.845508814E0,8.741828918E0,9.266779581E0
3.971991162E0,-1.188721180E0,2.840720415E0,8.703521729E0,9.232228388E0
3.974504495E0,-1.174355984E0,2.807201385E0,8.674791336E0,9.193013451E0
3.977017724E0,-1.169567585E0,2.768894196E0,8.622118950E0,9.131023962E0
3.979530641E0,-1.126471877E0,2.721010208E0,8.579023361E0,9.070417701E0
3.982043557E0,-7.386112213E-1,2.596511841E0,8.928576469E0,9.327748820E0
3.984556474E0,-5.039794445E-1,2.486378431E0,9.278130531E0,9.618720244E0
3.987069391E0,-3.459621370E-1,2.409764051E0,9.249400139E0,9.564416109E0
3.989582307E0,-2.932897210E-1,2.352303267E0,9.182361603E0,9.483412578E0
3.992095224E0,-2.358288616E-1,2.232593060E0,9.120112419E0,9.392365919E0
3.994608141E0,-1.687912196E-1,2.108094692E0,9.086593628E0,9.329455368E0
3.997121057E0,3.591302549E-3,1.959654093E0,9.120112419E0,9.328274631E0
3.999633974E0,2.334346622E-1,1.806425214E0,9.230246544E0,9.408247183E0
4.002146891E0,2.813186944E-1,1.686715126E0,9.201516151E0,9.359062325E0
4.004659807E0,2.334346622E-1,1.586158633E0,9.148842812E0,9.288256873E0
4.007172724E0,1.855506301E-1,1.499967337E0,9.053074837E0,9.178371045E0
4.009685641E0,9.457096457E-2,1.418564558E0,8.933364868E0,9.045787801E0
4.012198609E0,3.232172132E-2,1.404199243E0,8.780136108E0,8.891772056E0
4.014711578E0,-2.513911761E-2,1.351526856E0,8.602965355E0,8.708517079E0
4.017224599E0,-3.950432688E-2,1.298854470E0,8.406641006E0,8.506479680E0
4.019737620E0,-1.400607973E-1,1.241393566E0,8.353968620E0,8.446861353E0
4.022250641E0,-2.932897210E-1,1.260547161E0,8.468890190E0,8.567210693E0
4.024763662E0,-4.369418025E-1,1.322796464E0,8.564658165E0,8.677216034E0
4.027276682E0,-5.135562420E-1,1.332373261E0,8.670002937E0,8.786803142E0
4.029789703E0,-5.327098966E-1,1.332373261E0,8.780136108E0,8.896616684E0
4.032302724E0,-4.608838260E-1,1.361103654E0,8.947730064E0,9.062388778E0
4.034815745E0,-3.986345828E-1,1.404199243E0,9.110535622E0,9.226729884E0
4.037328714E0,-3.603273630E-1,1.399410844E0,9.302072525E0,9.413646466E0
4.039841526E0,-2.885012925E-1,1.385045648E0,9.531915665E0,9.636337514E0
4.042354287E0,-2.454056740E-1,1.370680451E0,9.742605209E0,9.841612932E0
4.044867047E0,-2.023100406E-1,1.365892053E0,9.876680374E0,9.972733109E0
4.047379807E0,-1.304839998E-1,1.380257249E0,9.991601944E0,1.008733094E1
4.049892568E0,-4.908113554E-2,1.413776159E0,1.004906273E1,1.014814435E1
4.052405328E0,6.105214357E-2,1.423352957E0,1.011131191E1,1.021118453E1
4.054918089E0,1.855506301E-1,1.452083349E0,1.019750404E1,1.030204173E1
4.057430849E0,3.004723191E-1,1.452083349E0,1.025017643E1,1.035687919E1
4.059943609E0,3.962403834E-1,1.447294950E0,1.030763721E1,1.041628792E1
4.062456370E0,4.680664241E-1,1.432929754E0,1.034115601E1,1.045044886E1
4.064969130E0,4.776432514E-1,1.413776159E0,1.036509800E1,1.047197033E1
4.067481891E0,4.680664241E-1,1.380257249E0,1.037946320E1,1.048129059E1
4.069994651E0,4.249708056E-1,1.298854470E0,1.041777039E1,1.050702446E1
4.072507255E0,3.770867586E-1,1.207874775E0,1.044650078E1,1.052285771E1
4.075019859E0,3.292027414E-1,1.083376288E0,1.049917316E1,1.056005283E1
4.077532464E0,3.052607179E-1,9.588778019E-1,1.059015274E1,1.063785532E1
4.080045068E0,2.669534981E-1,8.439561129E-1,1.061888313E1,1.065571232E1
4.082557724E0,2.477998734E-1,6.955155730E-1,1.070507431E1,1.073050617E1
4.085070432E0,2.382230759E-1,4.944026470E-1,1.081520748E1,1.082912264E1
4.087583193E0,3.052607179E-1,2.023100406E-1,1.094449425E1,1.095061952E1
4.090096005E0,3.196259141E-1,3.950432688E-2,1.095885944E1,1.096359073E1
4.092608870E0,2.142810524E-1,7.781155407E-2,1.090139866E1,1.090378208E1
4.095121839E0,1.795651205E-2,2.645592988E-1,1.090139866E1,1.090462318E1
4.097634912E0,-1.879448295E-1,5.853823423E-1,1.088224506E1,1.089959877E1
4.100148037E0,-4.560954273E-1,9.301473498E-1,1.068113232E1,1.073125271E1
4.102661214E0,-7.769184709E-1,1.255758762E0,1.056142235E1,1.066415371E1
4.105174443E0,-1.073799491E0,1.571793437E0,1.048959637E1,1.066091984E1
4.107687672E0,-1.346738458E0,1.926135302E0,1.045128918E1,1.071228954E1
4.110200901E0,-1.557428241E0,2.256535053E0,1.046086597E1,1.081421519E1
4.112714078E0,-1.782483220E0,2.476801634E0,1.040819359E1,1.084630290E1
4.115226891E0,-1.978807688E0,2.615665436E0,1.032679081E1,1.083512778E1
4.117739703E0,-2.179920673E0,2.730587006E0,1.022623444E1,1.080666601E1
4.120252516E0,-2.323572636E0,2.840720415E0,1.019271564E1,1.083328826E1
4.122765328E0,-2.433706045E0,2.883816004E0,1.016877270E1,1.084634768E1
4.125278141E0,-2.510320425E0,2.888604403E0,1.016877270E1,1.086506706E1
4.127790953E0,-2.539050817E0,2.922123194E0,1.017356110E1,1.088517011E1
4.130303766E0,-2.539050817E0,2.912546396E0,1.017356110E1,1.088260313E1
4.132816578E0,-2.448071241E0,2.936488390E0,1.029327202E1,1.098032175E1
4.135329391E0,-2.381033659E0,2.931699991E0,1.013046551E1,1.081159181E1
4.137842255E0,-2.371456861E0,2.840720415E0,9.948506355E0,1.061443728E1
4.140355120E0,-2.347514868E0,2.759317398E0,9.886257172E0,1.052913764E1
4.142868037E0,-2.280477047E0,2.687491417E0,9.847949982E0,1.045969906E1
4.145381005E0,-2.208651066E0,2.620453835E0,9.809642792E0,1.039105430E1
4.147894026E0,-2.122459888E0,2.606088638E0,9.800065994E0,1.036039707E1
4.150407047E0,-2.060210466E0,2.577358246E0,9.819219589E0,1.035877966E1
4.152920068E0,-2.021903276E0,2.586935043E0,9.833584785E0,1.036724243E1
4.155433089E0,-1.988384485E0,2.582146645E0,9.847949982E0,1.037319975E1
4.157945797E0,-2.007538080E0,2.625242233E0,9.819219589E0,1.036046231E1
4.160458193E0,-1.997961283E0,2.668337822E0,9.795277596E0,1.034694830E1
4.162970589E0,-2.017114878E0,2.721010208E0,9.780912399E0,1.035079206E1
4.165482984E0,-2.064998865E0,2.811989784E0,9.814431190E0,1.041607251E1
4.167995432E0,-2.108094692E0,2.883816004E0,9.833584785E0,1.046230604E1
4.170507932E0,-2.155978680E0,2.974795580E0,9.867103577E0,1.052888341E1
4.173020484E0,-2.232593060E0,3.094505787E0,9.905410767E0,1.061497057E1
4.175533089E0,-2.313995838E0,3.142389774E0,9.843161583E0,1.058853248E1
4.178045797E0,-2.390610456E0,3.171120167E0,9.718663216E0,1.049873498E1
4.180558609E0,-2.428917646E0,3.161543369E0,9.584588051E0,1.038071893E1
4.183071526E0,-2.428917646E0,3.151966572E0,9.426570892E0,1.023204637E1
4.185584547E0,-2.390610456E0,3.123236179E0,9.244611740E0,1.004651526E1
4.188097672E0,-2.290053844E0,3.089717388E0,9.009979248E0,9.796449673E0
4.190610901E0,-2.194285870E0,3.060986757E0,8.813654900E0,9.584625350E0
4.193124234E0,-2.103306293E0,3.017891169E0,8.612542152E0,9.365225400E0
4.195637672E0,-1.993172884E0,2.998737574E0,8.449736595E0,9.184944949E0
4.198151162E0,-1.787271619E0,2.965218782E0,8.339603424E0,9.029720236E0
4.200664703E0,-1.543063045E0,2.965218782E0,8.339603424E0,8.984572959E0
4.203178245E0,-1.318008065E0,2.931699991E0,8.382699013E0,8.977842326E0
