"Time (s)","Acceleration x (m/s^2)","Acceleration y (m/s^2)","Acceleration z (m/s^2)","Absolute acceleration (m/s^2)"
4.046276900E-2,-1.897404790E0,5.689820290E0,8.325238228E0,1.026078902E1
4.296881100E-2,-1.974019289E0,5.541379929E0,8.291719437E0,1.016642783E1
4.547610200E-2,-2.055422068E0,5.368997097E0,8.219893456E0,1.003082938E1
4.798485200E-2,-2.103306293E0,5.172672749E0,8.219893456E0,9.937156995E0
5.049521700E-2,-2.084152699E0,4.971560001E0,8.186373711E0,9.801878180E0
5.300724800E-2,-2.079364061E0,4.813542366E0,8.143278122E0,9.685397441E0
5.552089400E-2,-2.031480074E0,4.641160011E0,8.128912926E0,9.578439481E0
5.803610200E-2,-1.945288897E0,4.521450043E0,8.138489723E0,9.511186801E0
6.055271700E-2,-1.854309201E0,4.406527996E0,8.148066521E0,9.447059840E0
6.307058200E-2,-1.748964310E0,4.253299236E0,8.181585312E0,9.385508445E0
6.558943600E-2,-1.619677424E0,4.085705280E0,8.306084633E0,9.397200888E0
6.810907100E-2,-1.677138329E0,4.037821293E0,8.310873032E0,9.390814891E0
7.062917500E-2,-1.710657120E0,3.980360270E0,8.229470253E0,9.300204100E0
7.314948800E-2,-1.672349930E0,3.937264681E0,8.191162109E0,9.240884382E0
7.566870700E-2,-1.600523829E0,3.879803896E0,8.195950508E0,9.208048628E0
7.818224800E-2,-1.519120932E0,3.860650301E0,8.219893456E0,9.207551117E0
8.069573800E-2,-1.461660147E0,3.870227098E0,8.243835449E0,9.223661480E0
8.320922700E-2,-1.413776159E0,3.889380693E0,8.267777443E0,9.245657849E0
8.572271700E-2,-1.375468850E0,3.918111086E0,8.291719437E0,9.273409311E0
8.823605000E-2,-1.365892053E0,3.956418276E0,8.291719437E0,9.288246222E0
9.074938400E-2,-1.365892053E0,3.980360270E0,8.282142639E0,9.289930875E0
9.326271700E-2,-1.385045648E0,4.013879299E0,8.277354240E0,9.302912001E0
9.577605000E-2,-1.337161660E0,4.018667698E0,8.330026627E0,9.344893524E0
9.828938400E-2,-1.346738458E0,4.071340084E0,8.339603424E0,9.377552976E0
1.008027170E-1,-1.380257249E0,4.095282078E0,8.267777443E0,9.329125855E0
1.033156860E-1,-1.385045648E0,4.104858875E0,8.186373711E0,9.262015567E0
1.058286540E-1,-1.380257249E0,4.095282078E0,8.143278122E0,9.218970872E0
1.083416230E-1,-1.375468850E0,4.085705280E0,8.138489723E0,9.209772916E0
1.108545920E-1,-1.356315255E0,4.080916882E0,8.124124527E0,9.192109279E0
1.133675610E-1,-1.365892053E0,4.071340084E0,8.047510147E0,9.121616674E0
1.158805290E-1,-1.432929754E0,4.052186489E0,8.004414558E0,9.085381414E0
1.183934980E-1,-1.432929754E0,4.047398090E0,8.004414558E0,9.083246744E0
1.209064670E-1,-1.437718153E0,4.013879299E0,7.999626637E0,9.064893096E0
1.234194880E-1,-1.447294950E0,3.994725466E0,7.980473042E0,9.041042207E0
1.259325610E-1,-1.476025343E0,4.009090900E0,8.013991356E0,9.081603279E0
1.284456860E-1,-1.471236944E0,3.965995073E0,8.037933350E0,9.083062677E0
1.309588630E-1,-1.466448545E0,3.956418276E0,8.119336128E0,9.150264262E0
1.334721440E-1,-1.447294950E0,3.951629877E0,8.181585312E0,9.200455400E0
1.359855290E-1,-1.432929754E0,3.922899485E0,8.243835449E0,9.241387935E0
1.384990190E-1,-1.428141356E0,3.903745890E0,8.320449829E0,9.301005594E0
1.410126130E-1,-1.404199243E0,3.913322687E0,8.416217804E0,9.387150371E0
1.435263110E-1,-1.370680451E0,3.894169092E0,8.526350975E0,9.473224307E0
1.460401130E-1,-1.351526856E0,3.870227098E0,8.607753754E0,9.534081357E0
1.485540190E-1,-1.361103654E0,3.870227098E0,8.631695747E0,9.557061914E0
1.510680290E-1,-1.341950059E0,3.860650301E0,8.737040520E0,9.645793267E0
1.535821440E-1,-1.337161660E0,3.846285105E0,8.804078102E0,9.700190804E0
1.560963110E-1,-1.346738458E0,3.836708307E0,8.804078102E0,9.697722740E0
1.586105290E-1,-1.365892053E0,3.918111086E0,8.765770912E0,9.698247020E0
1.611247480E-1,-1.408987641E0,4.013879299E0,8.794501305E0,9.769325790E0
1.636389670E-1,-1.375468850E0,3.980360270E0,8.899846077E0,9.845935335E0
1.661523000E-1,-1.375468850E0,3.937264681E0,8.933364868E0,9.858954082E0
1.686656340E-1,-1.370680451E0,3.903745890E0,8.923788071E0,9.836258964E0
1.711789670E-1,-1.385045648E0,3.908534288E0,8.918999672E0,9.835829750E0
1.736923000E-1,-1.428141356E0,3.932476282E0,8.909422874E0,9.842853925E0
1.762056340E-1,-1.495178938E0,4.023456097E0,8.818443298E0,9.807583863E0
1.787189670E-1,-1.452083349E0,4.013879299E0,8.895057678E0,9.866196034E0
1.812323000E-1,-1.423352957E0,3.980360270E0,8.947730064E0,9.896013077E0
1.837456860E-1,-1.404199243E0,3.913322687E0,9.005190849E0,9.918635602E0
1.862590710E-1,-1.375468850E0,3.865438700E0,9.009979248E0,9.900164491E0
1.887725090E-1,-1.365892053E0,3.841496706E0,8.986037254E0,9.867706095E0
1.912859460E-1,-1.370680451E0,3.812766314E0,8.933364868E0,9.809228294E0
1.937993840E-1,-1.432929754E0,3.894169092E0,8.765770912E0,9.698277181E0
1.963128210E-1,-1.432929754E0,3.932476282E0,8.746617317E0,9.696441197E0
1.988262590E-1,-1.361103654E0,3.841496706E0,8.813654900E0,9.710314763E0
2.013396960E-1,-1.327584863E0,3.779247284E0,8.765770912E0,9.637631000E0
2.038531340E-1,-1.318008065E0,3.740940094E0,8.722675323E0,9.582110563E0
2.063665710E-1,-1.318008065E0,3.736151695E0,8.689156532E0,9.549733818E0
2.088800090E-1,-1.303642869E0,3.712209702E0,8.689156532E0,9.538418466E0
2.113934460E-1,-1.279700756E0,3.697844505E0,8.674791336E0,9.516495822E0
2.139068840E-1,-1.289277673E0,3.702632904E0,8.665214539E0,9.510923737E0
2.164202170E-1,-1.279700756E0,3.712209702E0,8.622118950E0,9.474126349E0
2.189331860E-1,-1.385045648E0,3.841496706E0,8.459313393E0,9.393371677E0
2.214461540E-1,-1.365892053E0,3.870227098E0,8.550292969E0,9.484293793E0
2.239591230E-1,-1.284489155E0,3.812766314E0,8.574234962E0,9.471251477E0
2.264720920E-1,-1.274912357E0,3.779247284E0,8.521562576E0,9.408779958E0
2.289850610E-1,-1.241393566E0,3.779247284E0,8.497620583E0,9.382607505E0
2.314980290E-1,-1.246181965E0,3.774458885E0,8.492832184E0,9.376977544E0
2.340109980E-1,-1.241393566E0,3.745728493E0,8.483255386E0,9.356129642E0
2.365240190E-1,-1.246181965E0,3.736151695E0,8.488043785E0,9.357279855E0
2.390370920E-1,-1.236605167E0,3.726574898E0,8.483255386E0,9.347843321E0
2.415502170E-1,-1.265335560E0,3.750516891E0,8.449736595E0,9.330889537E0
2.440633940E-1,-1.274912357E0,3.745728493E0,8.464101791E0,9.343281147E0
2.465765710E-1,-1.265335560E0,3.755305290E0,8.464101791E0,9.345823187E0
2.490897480E-1,-1.265335560E0,3.788824081E0,8.492832184E0,9.385332200E0
2.516029250E-1,-1.260547161E0,3.812766314E0,8.540716171E0,9.437690333E0
2.541161020E-1,-1.250970364E0,3.827131510E0,8.579023361E0,9.476893176E0
2.566292790E-1,-1.270123959E0,3.851073503E0,8.602965355E0,9.510783085E0
2.591424570E-1,-1.294066072E0,3.879803896E0,8.631695747E0,9.551631104E0
2.616556340E-1,-1.313219666E0,3.884592295E0,8.655637741E0,9.577821667E0
2.641688110E-1,-1.327584863E0,3.889380693E0,8.660426140E0,9.586070346E0
2.666819880E-1,-1.346738458E0,3.908534288E0,8.665214539E0,9.600848283E0
2.691951650E-1,-1.365892053E0,3.918111086E0,8.665214539E0,9.607455364E0
2.717083420E-1,-1.394622445E0,3.927687883E0,8.679579735E0,9.628437477E0
2.742215190E-1,-1.413776159E0,3.970783472E0,8.703521729E0,9.670427855E0
2.767346960E-1,-1.413776159E0,4.004302502E0,8.746617317E0,9.722989049E0
2.792478730E-1,-1.428141356E0,4.052186489E0,8.760982513E0,9.757797788E0
2.817610500E-1,-1.432929754E0,4.061763287E0,8.775347710E0,9.775373962E0
2.842742270E-1,-1.432929754E0,4.076128483E0,8.770559311E0,9.777055882E0
2.867874040E-1,-1.442506552E0,4.095282078E0,8.741828918E0,9.760724015E0
2.893006340E-1,-1.428141356E0,4.080916882E0,8.708310127E0,9.722558079E0
2.918138630E-1,-1.413776159E0,4.085705280E0,8.684368134E0,9.701030901E0
2.943270920E-1,-1.413776159E0,4.090493679E0,8.641272545E0,9.664496508E0
2.968403210E-1,-1.408987641E0,4.080916882E0,8.569446564E0,9.595548091E0
2.993535500E-1,-1.499967337E0,4.205415249E0,8.330026627E0,9.451177864E0
3.018667790E-1,-1.471236944E0,4.219780445E0,8.377910614E0,9.495286800E0
3.043799570E-1,-1.370680451E0,4.152742863E0,8.440159798E0,9.505805363E0
3.068930820E-1,-1.308431268E0,4.080916882E0,8.468890190E0,9.491468592E0
3.094062070E-1,-1.246181965E0,4.047398090E0,8.507197380E0,9.502989427E0
3.119193320E-1,-1.203086376E0,4.114435673E0,8.583811760E0,9.594676757E0
3.144324570E-1,-1.169567585E0,4.095282078E0,8.593388557E0,9.590909786E0
3.169455820E-1,-1.150413871E0,4.033032894E0,8.574234962E0,9.544962629E0
3.194586540E-1,-1.136048675E0,3.985148668E0,8.602965355E0,9.548980542E0
3.219715710E-1,-1.131260276E0,3.937264681E0,8.607753754E0,9.532849923E0
3.244843840E-1,-1.126471877E0,3.884592295E0,8.607753754E0,9.510647763E0
3.269971440E-1,-1.116895080E0,3.846285105E0,8.607753754E0,9.493934296E0
3.295099040E-1,-1.059434295E0,3.760093689E0,8.646060944E0,9.487627491E0
3.320226650E-1,-9.540894032E-1,3.592499733E0,8.684368134E0,9.446406237E0
3.345354250E-1,-9.205705523E-1,3.496731520E0,8.674791336E0,9.398222501E0
3.370481860E-1,-9.349357486E-1,3.439270735E0,8.626907349E0,9.334142620E0
3.395609460E-1,-9.445125461E-1,3.381809950E0,8.545504570E0,9.238744008E0
3.420737070E-1,-9.588778019E-1,3.314772367E0,8.569446564E0,9.238104616E0
3.445864670E-1,-9.540894032E-1,3.271676540E0,8.626907349E0,9.275650078E0
3.470992270E-1,-9.588778019E-1,3.238157749E0,8.727463722E0,9.358083953E0
3.496119880E-1,-9.971849918E-1,3.233369350E0,8.808866501E0,9.436375591E0
3.521247480E-1,-9.923965931E-1,3.223792553E0,8.938153267E0,9.553443005E0
3.546375090E-1,-1.035492182E0,3.290830135E0,9.072228432E0,9.706036047E0
3.571502690E-1,-1.064222693E0,3.377021551E0,9.196727753E0,9.854777819E0
3.596630290E-1,-1.083376288E0,3.439270735E0,9.206304550E0,9.887281266E0
3.621757380E-1,-1.126471877E0,3.496731520E0,9.153631210E0,9.863317624E0
3.646884460E-1,-1.159990668E0,3.606864929E0,9.124900818E0,9.880226106E0
3.672011540E-1,-1.217451572E0,3.697844505E0,9.086593628E0,9.885465395E0
3.697138630E-1,-1.265335560E0,3.793612480E0,9.038709641E0,9.883867750E0
3.722266230E-1,-1.289277673E0,3.855861902E0,9.043498039E0,9.915380210E0
3.747394360E-1,-1.332373261E0,3.865438700E0,9.072228432E0,9.950988070E0
3.772523000E-1,-1.346738458E0,3.889380693E0,9.067440033E0,9.957884083E0
3.797652170E-1,-1.365892053E0,3.922899485E0,9.043498039E0,9.951867074E0
3.822781860E-1,-1.375468850E0,3.946841478E0,9.033921242E0,9.953954250E0
3.847912070E-1,-1.394622445E0,3.922899485E0,9.048286438E0,9.960200781E0
3.873042790E-1,-1.380257249E0,3.903745890E0,9.100958824E0,9.998589579E0
3.898174040E-1,-1.380257249E0,3.894169092E0,9.096170425E0,9.990494452E0
3.923305820E-1,-1.380257249E0,3.846285105E0,9.100958824E0,9.976295440E0
3.948438110E-1,-1.370680451E0,3.812766314E0,9.110535622E0,9.970848067E0
3.973571440E-1,-1.346738458E0,3.779247284E0,9.134477615E0,9.976727711E0
3.998705820E-1,-1.318008065E0,3.669114113E0,9.129689217E0,9.927273988E0
4.023841230E-1,-1.308431268E0,3.606864929E0,9.110535622E0,9.885510928E0
4.048977690E-1,-1.332373261E0,3.640383720E0,9.081805229E0,9.874553071E0
4.074115190E-1,-1.418564558E0,3.716998100E0,8.933364868E0,9.779233515E0
4.099253210E-1,-1.413776159E0,3.726574898E0,8.938153267E0,9.786557481E0
4.124391750E-1,-1.284489155E0,3.645172119E0,9.009979248E0,9.803923613E0
4.149530290E-1,-1.255758762E0,3.573346138E0,8.990825653E0,9.756058559E0
4.174668840E-1,-1.246181965E0,3.496731520E0,8.976460457E0,9.713750210E0
4.199804770E-1,-1.327584863E0,3.453635931E0,8.947730064E0,9.682559373E0
4.224937590E-1,-1.408987641E0,3.515885115E0,8.823231697E0,9.601880644E0
4.250068840E-1,-1.308431268E0,3.477577925E0,8.909422874E0,9.653152675E0
4.275200090E-1,-1.140837073E0,3.396175146E0,9.043498039E0,9.727300326E0
4.300331340E-1,-1.092953086E0,3.377021551E0,9.091382027E0,9.759715578E0
4.325462590E-1,-1.107318282E0,3.434482336E0,9.100958824E0,9.790264257E0
4.350593840E-1,-1.131260276E0,3.415328741E0,9.134477615E0,9.817479388E0
4.375725090E-1,-1.183932781E0,3.410540342E0,9.139266014E0,9.826477779E0
4.400856340E-1,-1.260547161E0,3.472789526E0,9.124900818E0,9.844443162E0
4.425987590E-1,-1.227028370E0,3.477577925E0,9.191938400E0,9.904083925E0
4.451118840E-1,-1.159990668E0,3.415328741E0,9.201516151E0,9.883215481E0
4.476250090E-1,-1.092953086E0,3.357867956E0,9.182361603E0,9.837966673E0
4.501381340E-1,-1.025915384E0,3.266888142E0,9.177573204E0,9.795555646E0
4.526512590E-1,-9.253589511E-1,3.190273762E0,9.153631210E0,9.737715348E0
4.551643840E-1,-8.295909166E-1,3.156754971E0,9.100958824E0,9.668545628E0
4.576775090E-1,-7.721300721E-1,3.190273762E0,9.077016830E0,9.652267405E0
4.601906340E-1,-7.577648163E-1,3.257311344E0,9.043498039E0,9.642050689E0
4.627037590E-1,-7.577648163E-1,3.295618534E0,9.005190849E0,9.619187662E0
4.652169360E-1,-7.817068696E-1,3.281253338E0,8.966883659E0,9.580328369E0
4.677301650E-1,-8.870517015E-1,3.276464939E0,8.890269279E0,9.516247742E0
4.702433940E-1,-9.109937549E-1,3.329137564E0,8.847173691E0,9.496607229E0
4.727566230E-1,-8.774749041E-1,3.333925962E0,8.856750488E0,9.504054595E0
4.752698520E-1,-8.200140595E-1,3.372233152E0,8.880692482E0,9.534730119E0
4.777830820E-1,-7.817068696E-1,3.391386747E0,8.981248856E0,9.631998791E0
4.802963110E-1,-7.577648163E-1,3.396175146E0,9.062651634E0,9.707722070E0
4.828092790E-1,-7.864952683E-1,3.377021551E0,9.105747223E0,9.743586704E0
4.853221960E-1,-8.200140595E-1,3.377021551E0,9.144054413E0,9.782148472E0
4.878351130E-1,-8.008604646E-1,3.357867956E0,9.201516151E0,9.827744104E0
4.903480290E-1,-8.008604646E-1,3.333925962E0,9.239823341E0,9.855494670E0
4.928609460E-1,-8.056488633E-1,3.329137564E0,9.230246544E0,9.845287110E0
4.953738630E-1,-7.960720658E-1,3.333925962E0,9.249400139E0,9.864086171E0
4.978868320E-1,-8.152256608E-1,3.343502760E0,9.235034943E0,9.855428655E0
5.003999040E-1,-8.631097078E-1,3.386598349E0,9.249400139E0,9.887639237E0
5.029130820E-1,-8.774749041E-1,3.405751944E0,9.235034943E0,9.882053375E0
5.054263630E-1,-8.439561129E-1,3.377021551E0,9.206304550E0,9.842386903E0
5.079397480E-1,-5.901707411E-1,2.730587006E0,8.971672058E0,9.396558222E0
5.104532380E-1,-4.704606235E-1,2.376245260E0,9.024344444E0,9.343803689E0
5.129667790E-1,-6.284779310E-1,2.357091665E0,9.038709641E0,9.362111813E0
5.154803730E-1,-7.481880188E-1,2.381033659E0,8.899846077E0,9.243179474E0
5.179940190E-1,-8.152256608E-1,2.481590033E0,8.918999672E0,9.293623465E0
5.205076650E-1,-8.918401599E-1,2.625242233E0,9.057863235E0,9.472706163E0
5.230213110E-1,-9.445125461E-1,2.802412987E0,9.206304550E0,9.669625948E0
5.255349570E-1,-1.001973391E0,3.003525972E0,9.450512886E0,9.966810561E0
5.280482380E-1,-9.445125461E-1,3.161543369E0,9.943717957E0,1.047687870E1
5.305612590E-1,-9.301473498E-1,3.281253338E0,1.025975323E1,1.081176830E1
5.330742790E-1,-1.073799491E0,3.420117140E0,1.045607758E1,1.105349740E1
5.355873000E-1,-1.341950059E0,3.592499733E0,1.055663395E1,1.123162520E1
5.381003210E-1,-1.576581836E0,3.712209702E0,1.073380470E1,1.146650228E1
5.406133420E-1,-1.725022316E0,3.822343111E0,1.087266827E1,1.165336535E1
5.431262590E-1,-1.777694821E0,3.822343111E0,1.093491745E1,1.171933980E1
5.456391750E-1,-1.787271619E0,3.764882088E0,1.096364784E1,1.172903453E1
5.481520920E-1,-1.777694821E0,3.683479309E0,1.107378101E1,1.180495001E1
5.506650090E-1,-1.796848416E0,3.563769341E0,1.120785713E1,1.189727606E1
5.531779250E-1,-1.787271619E0,3.424905539E0,1.124616432E1,1.189119547E1
5.556908420E-1,-1.758541107E0,3.247734547E0,1.117912674E1,1.177340737E1
5.582038110E-1,-1.744175911E0,3.060986757E0,1.105462742E1,1.160243840E1
5.607168320E-1,-1.701080322E0,2.893392801E0,1.086309147E1,1.136979122E1
5.632298520E-1,-1.653196216E0,2.749740601E0,1.091097546E1,1.137292911E1
5.657428730E-1,-1.528697729E0,2.620453835E0,1.109772301E1,1.150491856E1
5.682558940E-1,-1.404199243E0,2.491166830E0,1.110729980E1,1.146951597E1
5.707689670E-1,-1.303642869E0,2.409764051E0,1.098758984E1,1.132402658E1
5.732820920E-1,-1.207874775E0,2.333149672E0,1.086309147E1,1.117628315E1
5.757952690E-1,-1.179144382E0,2.270900249E0,1.058057594E1,1.088558481E1
5.783084980E-1,-1.136048675E0,2.323572636E0,1.031721401E1,1.063647034E1
5.808217270E-1,-1.083376288E0,2.500743628E0,1.000117874E1,1.036585737E1
5.833349570E-1,-1.049857497E0,2.768894196E0,9.541492462E0,9.990448150E0
5.858481860E-1,-9.923965931E-1,2.974795580E0,8.909422874E0,9.445214434E0
5.883614150E-1,-8.391677141E-1,3.080140591E0,8.325238228E0,8.916336695E0
5.908746440E-1,-5.805938840E-1,3.175908566E0,7.946953773E0,8.577736225E0
5.933874570E-1,-3.363853395E-1,3.319560766E0,7.808090210E0,8.491107790E0
5.959002170E-1,-1.783680320E-1,3.511096716E0,7.664438248E0,8.432273060E0
5.984126650E-1,-4.429273307E-2,3.688267708E0,7.784148216E0,8.613840258E0
6.009251130E-1,-6.344634295E-2,3.889380693E0,7.942165375E0,8.843602120E0
6.034375610E-1,-2.166752517E-1,4.152742863E0,8.133701324E0,9.135059862E0
6.059500090E-1,-4.321534038E-1,4.377797604E0,8.387487411E0,9.471104133E0
6.084624570E-1,-6.093243361E-1,4.578910828E0,8.622118950E0,9.781545670E0
6.109749040E-1,-7.386112213E-1,4.717774391E0,8.789712906E0,1.000309926E1
6.134873520E-1,-7.625532150E-1,4.799177170E0,8.880692482E0,1.012325481E1
6.159998000E-1,-6.524199843E-1,4.856637955E0,9.124900818E0,1.035743207E1
6.185122480E-1,-5.470750928E-1,4.885368347E0,9.330802917E0,1.054656333E1
6.210246960E-1,-5.518634915E-1,4.871003151E0,9.455301285E0,1.065053742E1
6.235371960E-1,-5.614402890E-1,4.789600372E0,9.570222855E0,1.071655973E1
6.260497480E-1,-5.039794445E-1,4.698620796E0,9.608530045E0,1.070770201E1
6.285623520E-1,-2.741360962E-1,4.507084846E0,9.847949982E0,1.083379358E1
6.310750090E-1,-2.358288616E-1,4.377797604E0,9.790489197E0,1.072727392E1
6.335877170E-1,-1.592144072E-1,4.229357243E0,9.627683640E0,1.051689613E1
6.361004770E-1,-6.823474914E-2,4.085705280E0,9.527127266E0,1.036647469E1
6.386132900E-1,7.062894851E-2,3.937264681E0,9.479243279E0,1.026465269E1
6.411261540E-1,1.951274425E-1,3.855861902E0,9.469666481E0,1.022645241E1
6.436390710E-1,3.387795389E-1,3.784035683E0,9.436147690E0,1.017224561E1
6.461520400E-1,4.489128292E-1,3.712209702E0,9.407417297E0,1.012331585E1
6.486650610E-1,5.494692922E-1,3.654748917E0,9.292495728E0,1.000047914E1
6.511781340E-1,6.117185354E-1,3.616441727E0,9.167996407E0,9.874462438E0
6.536912070E-1,6.787561774E-1,3.606864929E0,9.024344444E0,9.742123855E0
6.562042790E-1,6.787561774E-1,3.606864929E0,8.808866501E0,9.542867158E0
6.587174040E-1,6.835445762E-1,3.621230125E0,8.583811760E0,9.341432713E0
6.612305290E-1,8.271966577E-1,3.549403906E0,8.670002937E0,9.404864344E0
6.637436540E-1,9.756371975E-1,3.501519918E0,8.813654900E0,9.533783214E0
6.662567790E-1,1.057040095E0,3.448847532E0,8.784924507E0,9.496672136E0
6.687699040E-1,1.114500880E0,3.424905539E0,8.650849342E0,9.370660836E0
6.712830290E-1,1.181538582E0,3.405751944E0,8.440159798E0,9.177770815E0
6.737961540E-1,1.258152962E0,3.400963545E0,8.248623848E0,9.010510379E0
6.763092790E-1,1.329979062E0,3.391386747E0,8.104970932E0,8.885994721E0
6.788221440E-1,1.416170359E0,3.391386747E0,8.013991356E0,8.816524259E0
6.813350090E-1,1.511938334E0,3.415328741E0,7.951742172E0,8.785250794E0
6.838478730E-1,1.602918029E0,3.372233152E0,7.942165375E0,8.776063667E0
6.863606340E-1,1.684320927E0,3.295618534E0,7.961318970E0,8.779557975E0
6.888733940E-1,1.770512104E0,3.175908566E0,7.966107368E0,8.756710280E0
6.913860500E-1,1.823184609E0,3.032256365E0,7.946953773E0,8.699003107E0
6.938986540E-1,1.856703401E0,2.850297213E0,7.913434982E0,8.613593613E0
6.964112590E-1,1.847126603E0,2.677914619E0,7.779359818E0,8.432173063E0
6.989238630E-1,1.832761407E0,2.491166830E0,7.630919456E0,8.233824039E0
7.014364670E-1,1.813607812E0,2.342726469E0,7.477690697E0,8.043220671E0
7.039490710E-1,1.784877419E0,2.223016262E0,7.372345448E0,7.904370064E0
7.064616750E-1,1.775300503E0,2.103306293E0,7.276577473E0,7.779728077E0
7.089742790E-1,1.799242616E0,1.969230890E0,7.223905087E0,7.700646011E0
7.114868840E-1,2.048239470E0,1.404199243E0,7.252635479E0,7.666014729E0
7.139994880E-1,2.038662672E0,1.040280581E0,7.243058681E0,7.596066630E0
7.165119880E-1,1.928529501E0,8.487445116E-1,6.927023888E0,7.240390405E0
7.190238630E-1,1.794454217E0,7.003039718E-1,6.615777969E0,6.890501414E0
7.215357380E-1,1.622071624E0,6.284779310E-1,6.510433197E0,6.738830854E0
7.240476130E-1,1.454477549E0,6.284779310E-1,6.543951988E0,6.733037730E0
7.265595400E-1,1.349132657E0,6.236895323E-1,6.654085159E0,6.818064012E0
7.290715190E-1,1.148019671E0,6.811503768E-1,6.812102318E0,6.941660680E0
7.315836020E-1,9.900023937E-1,7.433996201E-1,7.018003941E0,7.126368433E0
7.340957900E-1,9.229647517E-1,7.864952683E-1,7.262212276E0,7.362755319E0
7.366081340E-1,8.224082589E-1,9.014169574E-1,7.405864239E0,7.505713357E0
7.391206340E-1,7.314286232E-1,9.828197956E-1,7.487267494E0,7.586837095E0
7.416332900E-1,6.500257850E-1,1.025915384E0,7.492055893E0,7.589857535E0
7.441461020E-1,5.781996846E-1,1.073799491E0,7.487267494E0,7.585943234E0
7.466590710E-1,5.590460896E-1,1.107318282E0,7.453748226E0,7.556258924E0
7.491721960E-1,5.255272985E-1,1.164779186E0,7.425017834E0,7.534174097E0
7.516854770E-1,5.446808934E-1,1.212663174E0,7.434594631E0,7.552511276E0
7.541988630E-1,5.446808934E-1,1.274912357E0,7.492055893E0,7.619250639E0
7.567123520E-1,6.452373862E-1,1.322796464E0,7.554305077E0,7.696339842E0
7.592258940E-1,7.984662652E-1,1.341950059E0,7.659649849E0,7.817199892E0
7.617394880E-1,8.942343593E-1,1.389834046E0,7.884704590E0,8.056044950E0
7.642530820E-1,9.038111567E-1,1.442506552E0,8.248623848E0,8.422439976E0
7.667666230E-1,8.271966577E-1,1.519120932E0,8.641272545E0,8.812693908E0
7.692792270E-1,6.835445762E-1,1.648407817E0,9.062651634E0,9.236673436E0
7.717918320E-1,5.781996846E-1,1.739387512E0,9.450512886E0,9.626628569E0
7.743044360E-1,4.824316502E-1,1.844732404E0,9.800065994E0,9.983840515E0
7.768170400E-1,4.058171809E-1,1.974019289E0,1.009694672E1,1.029610474E1
7.793296440E-1,3.435679376E-1,2.093729496E0,1.032679081E1,1.054250210E1
7.818422480E-1,2.956839204E-1,2.194285870E0,1.047523117E1,1.070667024E1
7.843548520E-1,3.052607179E-1,2.290053844E0,1.059972954E1,1.084858502E1
7.868674570E-1,3.244143426E-1,2.366668463E0,1.069070911E1,1.095434278E1
7.893800610E-1,3.627215624E-1,2.424129248E0,1.078168869E1,1.105679793E1
7.918927170E-1,4.010287821E-1,2.462436438E0,1.082478428E1,1.110857200E1
7.944054250E-1,4.297592044E-1,2.515108824E0,1.081999588E1,1.111677904E1
7.969181860E-1,4.872200489E-1,2.553416014E0,1.081520748E1,1.112322029E1
7.994309980E-1,5.255272985E-1,2.591723442E0,1.077211189E1,1.109196123E1
8.019438630E-1,4.010287821E-1,2.649184227E0,1.067634392E1,1.100742116E1
8.044567790E-1,2.382230759E-1,2.706645012E0,1.063324833E1,1.097490991E1
8.069697480E-1,2.047042400E-1,2.768894196E0,1.061409473E1,1.097122080E1
8.094827690E-1,1.951274425E-1,2.807201385E0,1.058057594E1,1.094838078E1
8.119958420E-1,1.855506301E-1,2.792836189E0,1.050396156E1,1.087049086E1
8.145089150E-1,1.903390288E-1,2.807201385E0,1.043213558E1,1.080490913E1
8.170219880E-1,1.903390288E-1,2.845508814E0,1.036988640E1,1.075489160E1
8.195350610E-1,1.759738177E-1,2.855085611E0,1.030284882E1,1.069257567E1
8.220481340E-1,1.424549967E-1,2.855085611E0,1.022623444E1,1.061827095E1
8.245609460E-1,1.376665980E-1,2.855085611E0,1.014483070E1,1.053983187E1
8.270737590E-1,1.233013868E-1,2.864662409E0,1.004427433E1,1.044552252E1
8.295865710E-1,1.041477770E-1,2.893392801E0,9.977236748E0,1.038883159E1
8.320993840E-1,9.935937077E-2,2.922123194E0,9.919775963E0,1.034169384E1
8.346121960E-1,1.041477770E-1,2.946065187E0,9.847949982E0,1.027970163E1
8.371250090E-1,1.041477770E-1,2.955641985E0,9.790489197E0,1.022743101E1
8.396378210E-1,9.457096457E-2,2.974795580E0,9.718663216E0,1.016419043E1
8.421506340E-1,9.457096457E-2,2.989160776E0,9.661202431E0,1.011349881E1
8.446634460E-1,1.137245819E-1,2.989160776E0,9.642048836E0,1.009540099E1
8.471762590E-1,1.137245819E-1,2.984372377E0,9.603741646E0,1.005739854E1
8.496888630E-1,1.568202078E-1,2.979583979E0,9.570222855E0,1.002455379E1
8.522013630E-1,1.855506301E-1,2.974795580E0,9.560646057E0,1.001447906E1
8.547138630E-1,2.334346622E-1,2.950853586E0,9.560646057E0,1.000839556E1
8.572263630E-1,2.669534981E-1,2.917334795E0,9.555857658E0,9.994824764E0
8.597388630E-1,3.244143426E-1,2.864662409E0,9.546280861E0,9.972111795E0
8.622513630E-1,3.866635859E-1,2.797624588E0,9.565434456E0,9.973652711E0
8.647638630E-1,4.824316502E-1,2.735375404E0,9.575011253E0,9.969747209E0
8.672763630E-1,5.734112859E-1,2.653972626E0,9.565434456E0,9.943334829E0
8.697888630E-1,6.452373862E-1,2.601300240E0,9.575011253E0,9.943034483E0
8.723013630E-1,7.314286232E-1,2.515108824E0,9.575011253E0,9.926812214E0
8.748138630E-1,7.984662652E-1,2.457648039E0,9.560646057E0,9.903713207E0
8.773263630E-1,8.894459605E-1,2.409764051E0,9.541492462E0,9.881202118E0
8.798388630E-1,9.995791912E-1,2.357091665E0,9.555857658E0,9.892899235E0
8.823514150E-1,1.109712481E0,2.318784237E0,9.579799652E0,9.918708762E0
8.848640190E-1,1.205480576E0,2.280477047E0,9.627683640E0,9.967248931E0
8.873766750E-1,1.277306557E0,2.256535053E0,9.699509621E0,1.004011700E1
8.898893840E-1,1.353921056E0,2.237381458E0,9.790489197E0,1.013373854E1
8.924021440E-1,1.416170359E0,2.232593060E0,9.881468773E0,1.022904861E1
8.949149570E-1,1.487996340E0,2.237381458E0,9.948506355E0,1.030498848E1
8.974278210E-1,1.574187636E0,2.261323452E0,9.991601944E0,1.036454340E1
8.999407380E-1,1.660378933E0,2.261323452E0,1.006342793E1,1.044715385E1
9.024536540E-1,1.756146908E0,2.203862667E0,1.008258152E1,1.046897859E1
9.049666230E-1,1.813607812E0,2.141613483E0,1.006821632E1,1.045201710E1
9.074796440E-1,1.866280198E0,2.098517895E0,1.002512074E1,1.041104341E1
9.099927170E-1,1.914164305E0,2.064998865E0,1.002033234E1,1.040842473E1
9.125057900E-1,1.909375906E0,2.041056871E0,1.000117874E1,1.038437315E1
9.150188630E-1,1.861491799E0,2.050633669E0,9.986813545E0,1.036372013E1
9.175319360E-1,1.736993313E0,2.050633669E0,9.972448349E0,1.032821235E1
9.200444360E-1,1.598129630E0,2.050633669E0,9.967659950E0,1.030113400E1
9.225564670E-1,1.483207941E0,2.074575663E0,9.919775963E0,1.024234959E1
9.250684980E-1,1.377863050E0,2.093729496E0,9.914987564E0,1.022688556E1
9.275805290E-1,1.248576164E0,2.050633669E0,9.934141159E0,1.022013706E1
9.300925610E-1,1.138442874E0,1.978807688E0,9.910199165E0,1.016974825E1
9.326044880E-1,1.004367590E0,1.878251195E0,9.843161583E0,1.007096876E1
9.351162590E-1,9.133879542E-1,1.787271619E0,9.804854393E0,1.000818600E1
9.376280290E-1,8.702923059E-1,1.686715126E0,9.747393608E0,9.930463170E0
9.401398000E-1,8.271966577E-1,1.595735431E0,9.713874817E0,9.878764590E0
9.426516230E-1,7.697358727E-1,1.528697729E0,9.665990829E0,9.816353130E0
9.451634980E-1,7.218518257E-1,1.480813742E0,9.656414032E0,9.795928305E0
9.476754770E-1,6.691793799E-1,1.452083349E0,9.642048836E0,9.773712337E0
9.501876130E-1,6.165069342E-1,1.418564558E0,9.622895241E0,9.746410571E0
9.526999040E-1,6.021417379E-1,1.389834046E0,9.642048836E0,9.760292982E0
9.552124040E-1,5.925649405E-1,1.385045648E0,9.661202431E0,9.777950555E0
9.577251130E-1,6.069301367E-1,1.418564558E0,9.685144424E0,9.807278528E0
9.602380290E-1,5.973533392E-1,1.447294950E0,9.718663216E0,9.843978280E0
9.627511540E-1,5.925649405E-1,1.456871748E0,9.752182007E0,9.878191251E0
9.652644880E-1,5.781996846E-1,1.485602140E0,9.790489197E0,9.919425755E0
9.677779770E-1,6.165069342E-1,1.504755735E0,9.809642792E0,9.943513580E0
9.702916230E-1,6.404489279E-1,1.528697729E0,9.843161583E0,9.981729385E0
9.728053730E-1,6.643909812E-1,1.543063045E0,9.871891975E0,1.001382595E1
9.753191750E-1,7.314286232E-1,1.552639842E0,9.881468773E0,1.002941192E1
9.778330290E-1,7.745242715E-1,1.590947032E0,9.871891975E0,1.002921988E1
9.803468840E-1,8.463503122E-1,1.590947032E0,9.833584785E0,9.997340198E0
9.828597480E-1,8.942343593E-1,1.624465823E0,9.776124001E0,9.950434401E0
9.853726130E-1,9.516952038E-1,1.634042621E0,9.713874817E0,9.896220643E0
9.878854770E-1,9.708487988E-1,1.629254222E0,9.613318443E0,9.798617668E0
9.903983420E-1,9.900023937E-1,1.557428241E0,9.474454880E0,9.652511732E0
9.929112070E-1,1.033097982E0,1.523909330E0,9.388263702E0,9.567083486E0
9.954240710E-1,1.090558887E0,1.538274646E0,9.345168114E0,9.533507993E0
9.979364670E-1,1.052251697E0,1.614889026E0,9.278130531E0,9.476223212E0
1.000448759E0,1.023521185E0,1.701080322E0,9.244611740E0,9.455374985E0
1.002960946E0,1.037886381E0,1.777694821E0,9.225458145E0,9.452326962E0
1.005473134E0,1.066616893E0,1.859097600E0,9.172784805E0,9.419867120E0
1.007985269E0,1.104924083E0,1.935712099E0,9.153631210E0,9.421082894E0
1.010497404E0,1.152808070E0,2.002749681E0,9.115324020E0,9.403675065E0
1.013009540E0,1.186326981E0,2.050633669E0,9.072228432E0,9.376449161E0
1.015521675E0,1.224634171E0,2.108094692E0,9.053074837E0,9.375604305E0
1.018033811E0,1.262941360E0,2.155978680E0,9.033921242E0,9.373099698E0
1.020545946E0,1.291671872E0,2.184709072E0,8.995614052E0,9.346787797E0
1.023058134E0,1.282094955E0,2.203862667E0,8.962095261E0,9.317721266E0
1.025570373E0,1.277306557E0,2.227804661E0,8.966883659E0,9.327359123E0
1.028082717E0,1.277306557E0,2.270900249E0,9.000402451E0,9.369938327E0
1.030595165E0,1.248576164E0,2.294842243E0,9.062651634E0,9.431696454E0
1.033107717E0,1.171961784E0,2.280477047E0,9.072228432E0,9.427587109E0
1.035620425E0,1.133654475E0,2.227804661E0,9.105747223E0,9.442611851E0
1.038133290E0,1.080982089E0,2.160767078E0,9.139266014E0,9.453233305E0
1.040646259E0,1.042674899E0,2.103306293E0,9.187150002E0,9.482341138E0
1.043159332E0,9.947907925E-1,2.036268473E0,9.225458145E0,9.499740839E0
1.045672509E0,9.564836025E-1,1.993172884E0,9.263765335E0,9.523914490E0
1.048185790E0,9.373299479E-1,1.930923700E0,9.302072525E0,9.546497108E0
1.050699123E0,8.990227580E-1,1.887827992E0,9.349956512E0,9.580909311E0
1.053212509E0,8.702923059E-1,1.863885999E0,9.416994095E0,9.639048578E0
1.055725894E0,8.750807047E-1,1.849520802E0,9.445724487E0,9.664792006E0
1.058239279E0,8.367735147E-1,1.844732404E0,9.493608475E0,9.707308042E0
1.060752509E0,8.271966577E-1,1.835155606E0,9.517550468E0,9.728094229E0
1.063264904E0,8.032546639E-1,1.839944005E0,9.531915665E0,9.741048621E0
1.065777300E0,8.080430627E-1,1.825578809E0,9.551069260E0,9.757489205E0
1.068289696E0,7.936778665E-1,1.830367208E0,9.579799652E0,9.785332393E0
1.070802144E0,7.888894677E-1,1.825578809E0,9.584588051E0,9.788739075E0
1.073314644E0,7.266402245E-1,1.835155606E0,9.594164848E0,9.795090671E0
1.075827196E0,6.835445762E-1,1.825578809E0,9.603741646E0,9.799582888E0
1.078339800E0,6.691793799E-1,1.787271619E0,9.570222855E0,9.758652897E0
1.080852457E0,6.356605291E-1,1.705868721E0,9.488820076E0,9.661871394E0
1.083365165E0,7.170634270E-1,1.686715126E0,9.464878082E0,9.640700441E0
1.085877925E0,7.793126702E-1,1.768117905E0,9.565434456E0,9.758642605E0
1.088390738E0,8.176198602E-1,1.868674397E0,9.627683640E0,9.841378892E0
1.090903602E0,8.176198602E-1,1.911770105E0,9.608530045E0,9.830931634E0
1.093416519E0,7.984662652E-1,1.930923700E0,9.637260437E0,9.861176575E0
1.095929488E0,7.793126702E-1,1.926135302E0,9.680356026E0,9.900839269E0
1.098442509E0,7.936778665E-1,1.926135302E0,9.709086418E0,9.930069528E0
1.100955582E0,7.936778665E-1,1.935712099E0,9.713874817E0,9.936612594E0
1.103468707E0,7.888894677E-1,1.945288897E0,9.723451614E0,9.947462329E0
1.105981832E0,7.841010690E-1,1.930923700E0,9.737816811E0,9.958331038E0
1.108494957E0,7.745242715E-1,1.911770105E0,9.756970406E0,9.972623741E0
1.111008082E0,7.649474144E-1,1.902193308E0,9.814431190E0,1.002629261E1
1.113520894E0,7.793126702E-1,1.897404790E0,9.871891975E0,1.008274389E1
1.116033342E0,7.888894677E-1,1.878251195E0,9.929352760E0,1.013618372E1
1.118545686E0,7.074866295E-1,1.806425214E0,9.943717957E0,1.013120112E1
1.121057925E0,5.686228871E-1,1.576581836E0,9.905410767E0,1.004619852E1
1.123570165E0,5.542576909E-1,1.466448545E0,9.891045570E0,1.001451224E1
1.126082404E0,5.446808934E-1,1.461660147E0,1.002512074E1,1.014574657E1
1.128594644E0,5.207388401E-1,1.514332533E0,1.006821632E1,1.019477081E1
1.131106884E0,5.542576909E-1,1.610100627E0,1.008258152E1,1.022536433E1
1.133619123E0,6.260837317E-1,1.710657120E0,1.009215832E1,1.025524198E1
1.136131415E0,7.122750282E-1,1.825578809E0,1.013525391E1,1.032295720E1
1.138643759E0,8.032546639E-1,1.916558504E0,1.011610031E1,1.032733751E1
1.141156154E0,7.984662652E-1,1.978807688E0,1.008258152E1,1.030590502E1
1.143668654E0,8.559271097E-1,2.055422068E0,9.991601944E0,1.023667331E1
1.146181259E0,8.990227580E-1,2.084152699E0,9.852738380E0,1.011080551E1
1.148693915E0,8.607155085E-1,2.088941097E0,9.718663216E0,9.977821445E0
1.151206623E0,8.511387110E-1,2.050633669E0,9.531915665E0,9.787080861E0
1.153719384E0,6.308721304E-1,1.873462796E0,9.273342133E0,9.481705374E0
1.156232196E0,1.759738177E-1,1.705868721E0,9.124900818E0,9.284652380E0
1.158745009E0,1.855506301E-1,1.725022316E0,9.177573204E0,9.340127459E0
1.161257821E0,1.999158412E-1,1.782483220E0,9.167996407E0,9.341807688E0
1.163770634E0,2.525882721E-1,1.801636815E0,9.158419609E0,9.337362892E0
1.166283446E0,2.047042400E-1,1.849520802E0,9.124900818E0,9.312703472E0
1.168796259E0,1.711854190E-1,1.892616391E0,9.139266014E0,9.334746088E0
1.171309019E0,1.616086215E-1,1.930923700E0,9.230246544E0,9.431438647E0
1.173821779E0,1.663970202E-1,1.959654093E0,9.302072525E0,9.507706632E0
1.176334436E0,2.190694511E-1,1.983596087E0,9.421782494E0,9.630816695E0
1.178847092E0,2.861070931E-1,1.945288897E0,9.527127266E0,9.727906255E0
1.181359696E0,3.004723191E-1,1.906981707E0,9.622895241E0,9.814630694E0
1.183872300E0,2.525882721E-1,1.839944005E0,9.685144424E0,9.861603181E0
1.186384904E0,2.430114746E-1,1.777694821E0,9.780912399E0,9.944118906E0
1.188897509E0,2.956839204E-1,1.701080322E0,9.910199165E0,1.005948064E1
1.191410113E0,2.861070931E-1,1.648407817E0,9.977236748E0,1.011653887E1
1.193922717E0,3.196259141E-1,1.629254222E0,1.005385113E1,1.019002221E1
1.196435321E0,3.866635859E-1,1.605312228E0,1.016398430E1,1.029723812E1
1.198947925E0,4.153940082E-1,1.576581836E0,1.026454163E1,1.039321785E1
1.201460529E0,4.297592044E-1,1.571793437E0,1.030284882E1,1.043091182E1
1.203973134E0,3.962403834E-1,1.595735431E0,1.032679081E1,1.045686313E1
1.206485790E0,3.531447649E-1,1.600523829E0,1.033157921E1,1.046077993E1
1.208998446E0,3.052607179E-1,1.619677424E0,1.031242561E1,1.044330700E1
1.211511102E0,3.004723191E-1,1.643619418E0,1.027411842E1,1.040909592E1
1.214023759E0,5.063736439E-1,1.806425214E0,7.683591843E0,7.909309067E0
1.216536415E0,-7.386112213E-1,1.653196216E0,9.167996407E0,9.345092957E0
1.219049071E0,-6.284779310E-1,1.878251195E0,9.383475304E0,9.590225276E0
1.221561727E0,-1.209071875E-1,2.064998865E0,9.033921242E0,9.267716648E0
1.224074384E0,1.807622313E-1,2.060210466E0,9.412205696E0,9.636740020E0
1.226587040E0,2.382230759E-1,2.026691675E0,9.828796387E0,1.003839966E1
1.229099696E0,1.855506301E-1,1.950077295E0,9.972448349E0,1.016301907E1
1.231612352E0,1.472434103E-1,1.849520802E0,9.962871552E0,1.013416091E1
1.234125009E0,3.591302549E-3,1.835155606E0,9.977236748E0,1.014460754E1
1.236637665E0,-1.496376097E-1,1.830367208E0,1.000117874E1,1.016839278E1
1.239150321E0,-3.507505357E-1,1.854309201E0,9.953294754E0,1.013062510E1
1.241662977E0,-4.752490520E-1,1.897404790E0,9.867103577E0,1.005911227E1
1.244175634E0,-5.374982953E-1,1.950077295E0,9.756970406E0,9.964445663E0
1.246688290E0,-6.428431273E-1,1.983596087E0,9.661202431E0,9.883659906E0
1.249200946E0,-7.386112213E-1,2.012326479E0,9.512762070E0,9.751289483E0
1.251713602E0,-8.391677141E-1,2.050633669E0,9.383475304E0,9.641520091E0
1.254226259E0,-8.918401599E-1,2.103306293E0,9.297284126E0,9.573858593E0
1.256738915E0,-9.397241473E-1,2.136825085E0,9.196727753E0,9.488356247E0
1.259251415E0,-9.397241473E-1,2.170343876E0,9.115324020E0,9.417144260E0
1.261763550E0,-8.726865053E-1,2.208651066E0,9.019556046E0,9.326956230E0
1.264275477E0,-7.481880188E-1,2.270900249E0,8.986037254E0,9.298690165E0
1.266787404E0,-6.093243361E-1,2.309207439E0,8.981248856E0,9.293360326E0
1.269298967E0,-5.327098966E-1,2.357091665E0,8.957306862E0,9.277553943E0
1.271810529E0,-3.842693865E-1,2.409764051E0,8.895057678E0,9.223701906E0
1.274322092E0,-1.687912196E-1,2.452859640E0,8.875904083E0,9.210140291E0
1.276833654E0,1.041477770E-1,2.486378431E0,8.804078102E0,9.149028128E0
1.279345217E0,4.967968464E-1,2.558204412E0,8.679579735E0,9.062357381E0
1.281856832E0,9.325415492E-1,2.639607430E0,8.555081367E0,9.001476453E0
1.284368498E0,1.392228246E0,2.716221809E0,8.430583000E0,8.966096705E0
1.286880217E0,1.832761407E0,2.816778183E0,8.330026627E0,8.982349209E0
1.289392040E0,2.177526474E0,2.912546396E0,8.277354240E0,9.040970151E0
1.291903967E0,2.416946650E0,3.046621561E0,8.286931038E0,9.154057028E0
1.294416050E0,2.608482838E0,3.171120167E0,8.363545418E0,9.317138927E0
1.296928290E0,2.819172382E0,3.353079557E0,8.454524994E0,9.522072690E0
1.299440686E0,2.929305792E0,3.554192305E0,8.569446564E0,9.728747595E0
1.301953238E0,2.704250813E0,3.530250311E0,8.660426140E0,9.735431199E0
1.304465998E0,2.172738075E0,3.266888142E0,8.727463722E0,9.568802009E0
1.306978915E0,1.435323954E0,2.931699991E0,8.784924507E0,9.371761749E0
1.309491988E0,7.362170219E-1,2.529474020E0,8.847173691E0,9.231074511E0
1.312005217E0,1.616086215E-1,2.132036686E0,8.981248856E0,9.232254805E0
1.314518602E0,-2.837128937E-1,1.868674397E0,9.014767647E0,9.210780246E0
1.317032092E0,-6.093243361E-1,1.686715126E0,9.043498039E0,9.219606328E0
1.319545634E0,-8.295909166E-1,1.629254222E0,9.100958824E0,9.282787401E0
1.322059227E0,-9.062053561E-1,1.634042621E0,9.158419609E0,9.347082602E0
1.324572821E0,-8.774749041E-1,1.691503525E0,9.273342133E0,9.467102022E0
1.327086154E0,-7.912836671E-1,1.811213613E0,9.397840500E0,9.603438481E0
1.329599019E0,-6.476315856E-1,1.945288897E0,9.488820076E0,9.707794909E0
1.332111884E0,-5.135562420E-1,2.084152699E0,9.555857658E0,9.793969985E0
1.334624748E0,-3.555389643E-1,2.179920673E0,9.642048836E0,9.891792954E0
1.337137613E0,-2.645592988E-1,2.275688648E0,9.689932823E0,9.957085345E0
1.339650269E0,-2.023100406E-1,2.323572636E0,9.709086418E0,9.985303111E0
1.342162925E0,-1.735796183E-1,2.328361034E0,9.728240013E0,1.000450142E1
1.344675373E0,-1.687912196E-1,2.309207439E0,9.728240013E0,9.999979161E0
1.347187821E0,-1.975216419E-1,2.256535053E0,9.656414032E0,9.918533017E0
1.349700269E0,-2.310404629E-1,2.141613483E0,9.503185272E0,9.744250527E0
1.352212717E0,-2.885012925E-1,2.017114878E0,9.349956512E0,9.569413368E0
1.354725165E0,-3.699041605E-1,2.036268473E0,9.326014519E0,9.552893027E0
1.357237613E0,-4.369418025E-1,2.112883091E0,9.330802917E0,9.577007684E0
1.359750061E0,-5.039794445E-1,2.199074268E0,9.249400139E0,9.520573819E0
1.362262509E0,-5.758054852E-1,2.251746655E0,9.148842812E0,9.439451242E0
1.364775009E0,-6.332663298E-1,2.304419041E0,9.048286438E0,9.358571516E0
1.367287561E0,-6.428431273E-1,2.400187254E0,8.976460457E0,9.314021069E0
1.369800113E0,-6.619967818E-1,2.495955229E0,8.918999672E0,9.285288762E0
1.372312665E0,-6.763619781E-1,2.567781210E0,8.837596893E0,9.227897091E0
1.374825165E0,-6.763619781E-1,2.596511841E0,8.765770912E0,9.167228532E0
1.377337561E0,-6.907271743E-1,2.582146645E0,8.703521729E0,9.104717228E0
1.379849748E0,-7.098808289E-1,2.567781210E0,8.660426140E0,9.060927770E0
1.382361936E0,-7.242460251E-1,2.515108824E0,8.636484146E0,9.024364970E0
1.384874123E0,-8.104372621E-1,2.352303267E0,8.622118950E0,8.973910764E0
1.387386311E0,-9.109937549E-1,2.227804661E0,8.622118950E0,8.951757281E0
1.389898498E0,-9.493009448E-1,2.213439465E0,8.655637741E0,8.984461656E0
1.392410686E0,-9.205705523E-1,2.175132275E0,8.689156532E0,9.004448445E0
1.394922925E0,-8.678981066E-1,2.208651066E0,8.732252121E0,9.048956501E0
1.397435217E0,-8.056488633E-1,2.246958256E0,8.813654900E0,9.131177590E0
1.399947561E0,-7.338228226E-1,2.299630642E0,8.895057678E0,9.216769940E0
1.402459957E0,-6.667851806E-1,2.323572636E0,8.962095261E0,9.282388902E0
1.404972457E0,-6.619967818E-1,2.333149672E0,9.000402451E0,9.321430759E0
1.407485061E0,-7.194576263E-1,2.223016262E0,8.966883659E0,9.266305798E0
1.409997769E0,-8.200140595E-1,2.017114878E0,8.818443298E0,9.083287824E0
1.412510582E0,-8.008604646E-1,1.940500498E0,8.808866501E0,9.055553473E0
1.415023498E0,-8.152256608E-1,1.772906303E0,8.727463722E0,8.942953240E0
1.417536519E0,-1.404199243E0,1.595735431E0,8.660426140E0,8.917461971E0
1.420049644E0,-1.207874775E0,1.681926727E0,8.804078102E0,9.044314801E0
1.422562821E0,-8.774749041E-1,1.844732404E0,8.895057678E0,9.126612238E0
1.425076050E0,-6.141127348E-1,2.002749681E0,8.861538887E0,9.105768072E0
1.427589332E0,-3.938461840E-1,2.127248287E0,8.866327286E0,9.126448358E0
1.430102613E0,-2.549824715E-1,2.270900249E0,8.895057678E0,9.183901954E0
1.432615373E0,-5.279214978E-1,2.304419041E0,8.794501305E0,9.106717379E0
1.435127300E0,-1.164779186E0,2.189497471E0,8.550292969E0,8.902702937E0
1.437638967E0,-9.780313969E-1,2.232593060E0,8.555081367E0,8.895528899E0
1.440150634E0,-7.673416734E-1,2.122459888E0,8.641272545E0,8.931138808E0
1.442662300E0,-6.428431273E-1,2.079364061E0,8.598176956E0,8.869365770E0
1.445173967E0,-6.572083831E-1,2.127248287E0,8.468890190E0,8.756666557E0
1.447685634E0,-6.380547285E-1,2.227804661E0,8.401852608E0,8.715581144E0
1.450197300E0,-6.667851806E-1,2.323572636E0,8.301296234E0,8.646103830E0
1.452709019E0,-7.242460251E-1,2.390610456E0,8.215105057E0,8.586472020E0
1.455220790E0,-8.056488633E-1,2.452859640E0,8.210315704E0,8.606676157E0
1.457732561E0,-9.062053561E-1,2.472013235E0,8.215105057E0,8.626703233E0
1.460244384E0,-1.045069098E0,2.462436438E0,8.291719437E0,8.712541182E0
1.462756207E0,-1.174355984E0,2.438494444E0,8.320449829E0,8.749585847E0
1.465268029E0,-1.246181965E0,2.366668463E0,8.454524994E0,8.867529643E0
1.467779904E0,-1.284489155E0,2.266111851E0,8.626907349E0,9.011587303E0
1.470291832E0,-1.294066072E0,2.151190281E0,8.784924507E0,9.136581703E0
1.472803811E0,-1.265335560E0,1.974019289E0,9.033921242E0,9.333250197E0
1.475315842E0,-1.250970364E0,1.744175911E0,9.273342133E0,9.518505700E0
1.477827873E0,-1.308431268E0,1.380257249E0,9.359533310E0,9.550809716E0
1.480339904E0,-1.341950059E0,1.131260276E0,9.450512886E0,9.612115978E0
1.482851936E0,-1.279700756E0,1.035492182E0,9.570222855E0,9.710769463E0
1.485363967E0,-1.231816769E0,1.011550188E0,9.613318443E0,9.744562475E0
1.487875998E0,-1.136048675E0,1.035492182E0,9.642048836E0,9.763808499E0
1.490387873E0,-1.045069098E0,1.049857497E0,9.622895241E0,9.736245837E0
1.492899748E0,-1.035492182E0,1.054645896E0,9.642048836E0,9.754672100E0
1.495411623E0,-1.868674397E0,8.248024583E-1,9.474454880E0,9.692137967E0
1.497923498E0,-1.801636815E0,8.200140595E-1,9.546280861E0,9.749348519E0
1.500435425E0,-1.504755735E0,8.391677141E-1,9.527127266E0,9.681665467E0
1.502947404E0,-1.241393566E0,1.001973391E0,9.522338867E0,9.655047704E0
1.505459488E0,-1.567005038E0,1.035492182E0,9.594164848E0,9.776284979E0
1.507971675E0,-1.830367208E0,9.349357486E-1,9.685144424E0,9.900826808E0
1.510483967E0,-1.993172884E0,8.535329103E-1,9.809642792E0,1.004640972E1
1.512996363E0,-2.266111851E0,7.817068696E-1,9.694721222E0,9.986688546E0
1.515508863E0,-2.443282843E0,7.769184709E-1,9.575011253E0,9.912319298E0
1.518021467E0,-2.548627615E0,8.248024583E-1,9.541492462E0,9.910392536E0
1.520534175E0,-2.500743628E0,8.678981066E-1,9.555857658E0,9.915713862E0
1.523046988E0,-2.495955229E0,9.157821536E-1,9.598953247E0,9.960338995E0
1.525559904E0,-2.495955229E0,1.021126986E0,9.579799652E0,9.952138172E0
1.528072873E0,-2.395398855E0,1.116895080E0,9.642048836E0,9.997724543E0
1.530585894E0,-2.232593060E0,1.188721180E0,9.661202431E0,9.986809411E0
1.533098967E0,-1.954865694E0,1.246181965E0,9.670779228E0,9.944769492E0
1.535612092E0,-1.600523829E0,1.212663174E0,9.661202431E0,9.867677584E0
1.538125269E0,-1.227028370E0,9.493009448E-1,9.479243279E0,9.605353926E0
1.540638446E0,-1.112106681E0,8.774749041E-1,9.416994095E0,9.522947089E0
1.543151623E0,-1.059434295E0,9.445125461E-1,9.450512886E0,9.556500342E0
1.545664436E0,-1.011550188E0,9.493009448E-1,9.378686905E0,9.480726456E0
1.548176154E0,-9.923965931E-1,9.253589511E-1,9.258976936E0,9.357873375E0
1.550687873E0,-9.588778019E-1,9.540894032E-1,9.182361603E0,9.281459898E0
1.553199592E0,-9.780313969E-1,9.828197956E-1,9.158419609E0,9.262781974E0
1.555711363E0,-1.045069098E0,9.876081944E-1,9.153631210E0,9.265878464E0
1.558223186E0,-1.102529883E0,1.021126986E0,9.129689217E0,9.252540065E0
1.560735061E0,-1.188721180E0,1.069011092E0,9.067440033E0,9.207296645E0
1.563246988E0,-1.270123959E0,1.145625472E0,9.029132843E0,9.189717759E0
1.565758967E0,-1.351526856E0,1.236605167E0,9.005190849E0,9.189628905E0
1.568270998E0,-1.394622445E0,1.303642869E0,8.942941666E0,9.144433396E0
1.570783082E0,-1.495178938E0,1.365892053E0,8.851962090E0,9.080663742E0
1.573295217E0,-1.657984734E0,1.389834046E0,8.775347710E0,9.038101542E0
1.575807352E0,-1.849520802E0,1.423352957E0,8.713098526E0,9.020240948E0
1.578319488E0,-2.117671490E0,1.413776159E0,8.636484146E0,9.004007662E0
1.580831623E0,-2.323572636E0,1.442506552E0,8.526350975E0,8.954243457E0
1.583343759E0,-2.443282843E0,1.413776159E0,8.449736595E0,8.908784575E0
1.585855894E0,-2.553416014E0,1.404199243E0,8.401852608E0,8.892853091E0
1.588368029E0,-2.644395828E0,1.418564558E0,8.349180222E0,8.872089104E0
1.590880165E0,-2.649184227E0,1.442506552E0,8.397064209E0,8.922426214E0
1.593392300E0,-2.591723442E0,1.471236944E0,8.483255386E0,8.991506575E0
1.595904436E0,-2.515108824E0,1.528697729E0,8.559869766E0,9.051743454E0
1.598416571E0,-2.419340849E0,1.576581836E0,8.631695747E0,9.101922429E0
1.600928654E0,-2.342726469E0,1.610100627E0,8.655637741E0,9.110480560E0
1.603440529E0,-2.347514868E0,1.581370234E0,8.737040520E0,9.184085960E0
1.605952352E0,-2.395398855E0,1.600523829E0,8.770559311E0,9.231593732E0
1.608464071E0,-2.428917646E0,1.610100627E0,8.828020096E0,9.296558706E0
1.610975790E0,-2.208651066E0,1.638831019E0,9.321226120E0,9.718495924E0
1.613487509E0,-1.763329506E0,1.705868721E0,1.002512074E1,1.032096724E1
1.615999227E0,-1.318008065E0,1.792060018E0,1.042734718E1,1.066199764E1
1.618510998E0,-1.035492182E0,1.892616391E0,1.048480797E1,1.070445884E1
1.621022821E0,-9.253589511E-1,2.021903276E0,1.033636761E1,1.057283677E1
1.623534696E0,-9.445125461E-1,2.155978680E0,1.006821632E1,1.033969671E1
1.626046675E0,-1.040280581E0,2.261323452E0,9.646837234E0,9.962792584E0
1.628558759E0,-1.121683478E0,2.366668463E0,9.278130531E0,9.640694975E0
1.631070946E0,-1.198297977E0,2.495955229E0,9.043498039E0,9.457831006E0
1.633583238E0,-1.284489155E0,2.577358246E0,8.837596893E0,9.294934468E0
1.636095634E0,-1.341950059E0,2.596511841E0,8.655637741E0,9.135795992E0
1.638608134E0,-1.370680451E0,2.572569609E0,8.588600159E0,9.069781253E0
1.641120738E0,-1.385045648E0,2.524685621E0,8.545504570E0,9.017651429E0
1.643633446E0,-1.413776159E0,2.467224836E0,8.550292969E0,9.010741993E0
1.646146207E0,-1.428141356E0,2.433706045E0,8.636484146E0,9.085778517E0
1.648659019E0,-1.385045648E0,2.390610456E0,8.737040520E0,9.163473514E0
1.651171832E0,-1.356315255E0,2.385822058E0,8.923788071E0,9.336258967E0
1.653683915E0,-1.394622445E0,2.385822058E0,9.072228432E0,9.483799206E0
1.656195998E0,-1.538274646E0,2.390610456E0,8.971672058E0,9.411280825E0
1.658708082E0,-1.696291924E0,2.361880064E0,8.808866501E0,9.276422411E0
1.661220165E0,-1.868674397E0,2.290053844E0,8.641272545E0,9.132791567E0
1.663732248E0,-2.031480074E0,2.232593060E0,8.497620583E0,9.017812297E0
1.666244332E0,-2.208651066E0,2.136825085E0,8.344391823E0,8.892302057E0
1.668756415E0,-2.290053844E0,2.041056871E0,8.210315704E0,8.764675905E0
1.671268550E0,-2.361880064E0,1.930923700E0,8.028356552E0,8.588448795E0
1.673780738E0,-2.361880064E0,1.839944005E0,7.899069786E0,8.447435993E0
1.676292977E0,-2.242169857E0,1.739387512E0,7.961318970E0,8.451946186E0
1.678805269E0,-2.041056871E0,1.610100627E0,8.004414558E0,8.415996055E0
1.681317613E0,-1.801636815E0,1.504755735E0,8.100182533E0,8.433453747E0
1.683830009E0,-1.509544134E0,1.418564558E0,8.272565842E0,8.527977164E0
1.686342457E0,-1.212663174E0,1.327584863E0,8.454524994E0,8.643611885E0
1.688854957E0,-9.301473498E-1,1.246181965E0,8.631695747E0,8.770650777E0
1.691367457E0,-6.811503768E-1,1.183932781E0,8.789712906E0,8.895207453E0
1.693879957E0,-4.417302012E-1,1.155202270E0,8.995614052E0,9.080236232E0
1.696392457E0,-1.448491961E-1,1.207874775E0,9.211092949E0,9.291080458E0
1.698904332E0,-1.113303825E-1,1.222239971E0,9.335591316E0,9.415918979E0
1.701416207E0,-3.746925592E-1,1.107318282E0,9.440936089E0,9.513034349E0
1.703928082E0,-8.391677141E-1,8.966285586E-1,9.560646057E0,9.639195934E0
1.706439957E0,-1.370680451E0,6.811503768E-1,9.651625633E0,9.772236597E0
1.708951832E0,-1.854309201E0,4.800374508E-1,9.723451614E0,9.910318353E0
1.711463707E0,-2.194285870E0,3.651157618E-1,9.694721222E0,9.946648660E0
1.713975582E0,-2.390610456E0,3.555389643E-1,9.646837234E0,9.944993461E0
1.716487509E0,-2.438494444E0,4.034229815E-1,9.565434456E0,9.879602299E0
1.718999488E0,-2.390610456E0,5.135562420E-1,9.507973671E0,9.817347997E0
1.721511519E0,-2.304419041E0,6.715735793E-1,9.440936089E0,9.741284947E0
1.724023602E0,-2.246958256E0,8.200140595E-1,9.397840500E0,9.697455879E0
1.726535738E0,-2.218227863E0,9.493009448E-1,9.373898506E0,9.679446283E0
1.729047925E0,-2.404975653E0,9.540894032E-1,9.364321709E0,9.715179645E0
1.731560113E0,-2.625242233E0,1.006761789E0,9.359533310E0,9.772734001E0
1.734072352E0,-2.797624588E0,1.246181965E0,9.254188538E0,9.747803769E0
1.736584644E0,-2.850297213E0,1.490390539E0,9.167996407E0,9.715843570E0
1.739096988E0,-2.749740601E0,1.600523829E0,9.110535622E0,9.650109285E0
1.741609384E0,-2.649184227E0,1.672349930E0,9.014767647E0,9.543634899E0
1.744121832E0,-2.644395828E0,1.696291924E0,8.837596893E0,9.379411199E0
1.746634332E0,-2.625242233E0,1.710657120E0,8.650849342E0,9.200839033E0
1.749146884E0,-2.615665436E0,1.667561531E0,8.425794601E0,8.978668153E0
1.751659436E0,-2.630030632E0,1.657984734E0,8.243835449E0,8.810607097E0
1.754171988E0,-2.692279816E0,1.614889026E0,8.104970932E0,8.691765700E0
1.756684540E0,-2.744952202E0,1.547851443E0,8.023568153E0,8.620223465E0
1.759197092E0,-2.768894196E0,1.442506552E0,7.956530571E0,8.547162040E0
1.761709644E0,-2.764105797E0,1.303642869E0,7.932588577E0,8.500925074E0
1.764222196E0,-2.716221809E0,1.164779186E0,7.879916191E0,8.415916507E0
1.766734592E0,-2.721010208E0,1.404199243E0,7.980473042E0,8.547726132E0
1.769246988E0,-2.543839216E0,1.341950059E0,8.066663742E0,8.564053471E0
1.771759384E0,-2.333149672E0,9.780313969E-1,8.104970932E0,8.490623452E0
1.774271779E0,-2.270900249E0,5.710170865E-1,8.018779755E0,8.353674474E0
1.776784175E0,-2.328361034E0,4.369418025E-1,8.018779755E0,8.361400122E0
1.779296571E0,-2.376245260E0,4.513070285E-1,8.167220116E0,8.517846206E0
1.781808967E0,-2.433706045E0,4.082113802E-1,8.406641006E0,8.761345482E0
1.784321363E0,-2.481590033E0,3.076549172E-1,8.665214539E0,9.018807218E0
1.786833759E0,-2.486378431E0,1.879448295E-1,8.837596893E0,9.182620531E0
1.789346154E0,-2.515108824E0,4.429273307E-2,8.962095261E0,9.308430894E0
1.791858550E0,-2.572569609E0,-2.908954918E-1,8.832808495E0,9.204414185E0
1.794370946E0,-2.534262419E0,-4.680664241E-1,8.909422874E0,9.274663775E0
1.796883342E0,-2.467224836E0,-5.638344884E-1,9.110535622E0,9.455525741E0
1.799395738E0,-2.462436438E0,-6.739677787E-1,9.306860924E0,9.650672828E0
1.801908134E0,-2.457648039E0,-7.601590157E-1,9.484031677E0,9.826735596E0
1.804420425E0,-2.452859640E0,-8.271966577E-1,9.670779228E0,1.001123097E1
1.806932509E0,-2.457648039E0,-9.181763530E-1,9.809642792E0,1.015441645E1
1.809444592E0,-2.428917646E0,-9.133879542E-1,9.871891975E0,1.020726063E1
1.811956675E0,-2.400187254E0,-8.463503122E-1,9.919775963E0,1.024105282E1
1.814468759E0,-2.419340849E0,-7.314286232E-1,9.886257172E0,1.020422848E1
1.816980842E0,-2.457648039E0,-5.542576909E-1,9.814431190E0,1.013263515E1
1.819492977E0,-2.510320425E0,-3.004723191E-1,9.733028412E0,1.005603472E1
1.822005165E0,-2.553416014E0,-8.379706182E-3,9.689932823E0,1.002071862E1
1.824517404E0,-2.591723442E0,3.363853395E-1,9.752182007E0,1.009629830E1
1.827029696E0,-2.634819031E0,6.667851806E-1,9.881468773E0,1.024842909E1
1.829542092E0,-2.730587006E0,9.540894032E-1,1.002033234E1,1.042945119E1
1.832054592E0,-2.811989784E0,1.217451572E0,1.003948593E1,1.049670199E1
1.834567196E0,-2.936488390E0,1.408987641E0,9.972448349E0,1.049085012E1
1.837079852E0,-3.017891169E0,1.595735431E0,9.924564362E0,1.049528544E1
1.839592561E0,-3.118447781E0,1.667561531E0,9.828796387E0,1.044560752E1
1.842105321E0,-3.257311344E0,1.571793437E0,9.622895241E0,1.028011306E1
1.844618082E0,-3.295618534E0,1.155202270E0,9.043498039E0,9.694351479E0
1.847130842E0,-3.415328741E0,8.391677141E-1,8.574234962E0,9.267479596E0
1.849643342E0,-3.353079557E0,3.699041605E-1,7.894281387E0,8.584850041E0
1.852155061E0,-3.372233152E0,-3.711012751E-2,7.396287441E0,8.128862252E0
1.854666779E0,-3.424905539E0,-3.387795389E-1,6.960542679E0,7.764914932E0
1.857178498E0,-3.573346138E0,-4.393360019E-1,6.893505096E0,7.777032291E0
1.859690269E0,-3.726574898E0,-6.691793799E-1,6.769006729E0,7.755940537E0
1.862202092E0,-3.721786499E0,-9.660604000E-1,6.644508362E0,7.676878194E0
1.864713967E0,-3.525461912E0,-1.100135684E0,6.802525520E0,7.740383303E0
1.867225894E0,-3.252522945E0,-1.210268974E0,6.903081894E0,7.726331350E0
1.869737925E0,-2.979583979E0,-1.306037068E0,6.974907875E0,7.696297381E0
1.872250061E0,-2.783259392E0,-1.373074651E0,7.022792339E0,7.677986655E0
1.874762352E0,-2.596511841E0,-1.392228246E0,7.118560314E0,7.704159537E0
1.877274800E0,-2.452859640E0,-1.387439847E0,7.228693485E0,7.758577141E0
1.879787404E0,-2.318784237E0,-1.425747156E0,7.271789074E0,7.764562552E0
1.882300113E0,-2.266111851E0,-1.406593442E0,7.305307865E0,7.776971842E0
1.884812925E0,-2.227804661E0,-1.267729759E0,7.276577473E0,7.714844915E0
1.887325842E0,-2.232593060E0,-1.186326981E0,7.243058681E0,7.671619290E0
1.889838863E0,-2.285265446E0,-1.109712481E0,7.195174694E0,7.630494009E0
1.892351988E0,-2.409764051E0,-1.013944387E0,7.123348713E0,7.587960391E0
1.894865165E0,-2.601300240E0,-9.038111567E-1,7.152079105E0,7.663933264E0
1.897378342E0,-2.735375404E0,-7.266402245E-1,7.233481884E0,7.767467077E0
1.899891519E0,-2.931699991E0,-6.069301367E-1,7.429806232E0,8.010321447E0
1.902404696E0,-3.070563793E0,-5.351040959E-1,7.549516678E0,8.167612899E0
1.904917352E0,-3.242946148E0,-4.010287821E-1,7.980473042E0,8.623541834E0
1.907430009E0,-3.444059134E0,-2.621650994E-1,8.205527306E0,8.902862024E0
1.909942665E0,-3.568557739E0,-1.903390288E-1,8.440159798E0,9.165540393E0
1.912455321E0,-3.697844505E0,-7.541735470E-2,8.535927773E0,9.302784782E0
1.914967977E0,-3.803189516E0,-9.457096457E-2,8.775347710E0,9.564513662E0
1.917480634E0,-3.827131510E0,-1.795651205E-2,8.971672058E0,9.753879103E0
1.919993290E0,-3.922899485E0,4.429273307E-2,9.124900818E0,9.932518168E0
1.922505946E0,-3.989937067E0,5.985504016E-3,8.962095261E0,9.810136854E0
1.925018602E0,-4.066551685E0,-1.376665980E-1,9.091382027E0,9.960372576E0
1.927531259E0,-4.080916882E0,-1.616086215E-1,9.005190849E0,9.888046429E0
1.930043967E0,-4.133589268E0,-2.094926536E-1,9.014767647E0,9.919500145E0
1.932556675E0,-4.119224072E0,-2.717418969E-1,9.153631210E0,1.004145482E1
1.935069384E0,-4.119224072E0,-4.249708056E-1,9.134477615E0,1.002932143E1
1.937582144E0,-3.894169092E0,-6.596025825E-1,9.895833969E0,1.065491241E1
1.940094957E0,-3.568557739E0,-8.702923059E-1,1.117912674E1,1.176711042E1
1.942607769E0,-3.113659382E0,-1.176750183E0,1.148558426E1,1.195818805E1
1.945120582E0,-2.677914619E0,-1.454477549E0,1.073380470E1,1.115801483E1
1.947633394E0,-2.424129248E0,-1.717839718E0,9.172784805E0,9.641958151E0
1.950146207E0,-2.500743628E0,-1.947683096E0,7.669226646E0,8.298447173E0
1.952659019E0,-2.701856613E0,-2.258929253E0,6.754641533E0,7.617609386E0
1.955171832E0,-2.955641985E0,-2.589329243E0,6.433818340E0,7.538863569E0
1.957684071E0,-3.084928989E0,-2.929305792E0,6.534375191E0,7.797158356E0
1.960196207E0,-3.032256365E0,-3.240551949E0,6.845621109E0,8.158326051E0
1.962708238E0,-2.797624588E0,-3.432088137E0,7.089829922E0,8.358924610E0
1.965220269E0,-2.462436438E0,-3.503914118E0,7.132925510E0,8.319833754E0
1.967732300E0,-2.179920673E0,-3.508702517E0,6.989273548E0,8.118681680E0
1.970244332E0,-2.050633669E0,-3.470395327E0,6.788160324E0,7.894799728E0
1.972756363E0,-2.021903276E0,-3.384204149E0,6.639719963E0,7.721839921E0
1.975268446E0,-2.151190281E0,-3.307589531E0,6.596624374E0,7.686561082E0
1.977780582E0,-2.381033659E0,-3.230975151E0,6.625354767E0,7.746215043E0
1.980292769E0,-2.634819031E0,-3.187879562E0,6.687603951E0,7.863135127E0
1.982805009E0,-2.802412987E0,-3.154360771E0,6.745064735E0,7.956092553E0
1.985317300E0,-2.864662409E0,-3.111265182E0,6.836044312E0,8.038517499E0
1.987829644E0,-2.912546396E0,-3.063380957E0,7.037157536E0,8.209069105E0
1.990342040E0,-2.912546396E0,-3.072957993E0,7.281365871E0,8.422843124E0
1.992854488E0,-2.864662409E0,-3.092111588E0,7.535151482E0,8.633999805E0
1.995366988E0,-2.855085611E0,-3.159149170E0,7.769783020E0,8.860093990E0
1.997879540E0,-2.826355219E0,-3.235763550E0,7.951742172E0,9.038177535E0
2.000392196E0,-2.879027605E0,-3.298012733E0,7.985261440E0,9.106595863E0
2.002904957E0,-3.003525972E0,-3.298012733E0,7.970896244E0,9.134179941E0
2.005417821E0,-3.151966572E0,-3.269282341E0,7.942165375E0,9.148830042E0
2.007930738E0,-3.314772367E0,-3.235763550E0,7.946953773E0,9.198475737E0
2.010443707E0,-3.372233152E0,-3.221398354E0,7.975684643E0,9.239096780E0
2.012956675E0,-3.381809950E0,-3.183091164E0,8.229470253E0,9.449491443E0
2.015469644E0,-3.333925962E0,-3.159149170E0,8.430583000E0,9.600521628E0
2.017982404E0,-3.290830135E0,-3.154360771E0,8.579023361E0,9.714895609E0
2.020494957E0,-3.247734547E0,-3.192667961E0,8.622118950E0,9.750991928E0
2.023007248E0,-3.242946148E0,-3.269282341E0,8.650849342E0,9.800107198E0
2.025519540E0,-3.242946148E0,-3.321954966E0,8.674791336E0,9.838906913E0
2.028031832E0,-3.190273762E0,-3.321954966E0,8.670002937E0,9.817442763E0
2.030544123E0,-3.156754971E0,-3.336320162E0,8.646060944E0,9.790327063E0
2.033056415E0,-3.123236179E0,-3.403357744E0,8.521562576E0,9.693011756E0
2.035568707E0,-3.123236179E0,-3.436876535E0,8.483255386E0,9.671212256E0
2.038081050E0,-3.132812977E0,-3.436876535E0,8.511985779E0,9.699512326E0
2.040593446E0,-3.032256365E0,-3.427299738E0,8.583811760E0,9.727424453E0
2.043105894E0,-2.950853586E0,-3.446453333E0,8.492832184E0,9.628799300E0
2.045618394E0,-2.893392801E0,-3.479972124E0,8.291719437E0,9.446403501E0
2.048130946E0,-2.902969599E0,-3.542221308E0,8.128912926E0,9.330262035E0
2.050643550E0,-3.008314371E0,-3.700238705E0,7.951742172E0,9.272104691E0
2.053156154E0,-3.137601376E0,-3.896563292E0,7.784148216E0,9.253146023E0
2.055668759E0,-3.089717388E0,-3.939658880E0,7.674015045E0,9.162847404E0
2.058181363E0,-3.022679567E0,-3.886986494E0,7.573458672E0,9.033411981E0
2.060693967E0,-3.032256365E0,-3.786429882E0,7.444171429E0,8.885230339E0
2.063206571E0,-3.084928989E0,-3.709815502E0,7.262212276E0,8.718901598E0
2.065719175E0,-3.214215755E0,-3.614047527E0,7.142502308E0,8.625999169E0
2.068231779E0,-3.314772367E0,-3.508702517E0,7.099406719E0,8.584887009E0
2.070744384E0,-3.343502760E0,-3.345896959E0,7.056311131E0,8.495031721E0
2.073256988E0,-3.405751944E0,-3.149572372E0,6.994061947E0,8.392607160E0
2.075769488E0,-3.482366323E0,-3.029862165E0,6.912658691E0,8.312147144E0
2.078281988E0,-3.539827108E0,-2.948459387E0,6.883928299E0,8.283251628E0
2.080794227E0,-3.568557739E0,-2.881421804E0,6.869563103E0,8.260029853E0
2.083306311E0,-3.592499733E0,-2.838326216E0,6.831255913E0,8.223637114E0
2.085818394E0,-3.597288132E0,-2.800018787E0,6.826467514E0,8.208608033E0
2.088330477E0,-3.611653328E0,-2.819172382E0,6.764218330E0,8.169848365E0
2.090842561E0,-3.563769341E0,-2.862268209E0,6.701969147E0,8.112300639E0
2.093354644E0,-3.429693937E0,-3.034650564E0,6.318896770E0,7.803868332E0
2.095866727E0,-3.568557739E0,-3.183091164E0,6.275801182E0,7.890016107E0
2.098378811E0,-3.716998100E0,-3.106476784E0,6.855197906E0,8.394046177E0
2.100890894E0,-3.654748917E0,-3.034650564E0,6.558317184E0,8.098013212E0
2.103402977E0,-3.635595322E0,-3.087323189E0,6.318896770E0,7.916916964E0
2.105915061E0,-3.640383720E0,-3.288435936E0,6.156091213E0,7.871700170E0
2.108427196E0,-3.673902512E0,-3.470395327E0,6.294954777E0,8.072648824E0
2.110939384E0,-3.736151695E0,-3.513490915E0,6.701969147E0,8.439184697E0
2.113451675E0,-3.702632904E0,-3.585317135E0,6.716334343E0,8.465998842E0
2.115964071E0,-3.693056107E0,-3.776853085E0,6.701969147E0,8.533444385E0
2.118476571E0,-3.774458885E0,-4.116829872E0,6.845621109E0,8.835007439E0
2.120989227E0,-3.640383720E0,-4.294000626E0,6.936600685E0,8.933491147E0
2.123501988E0,-3.501519918E0,-4.413711071E0,7.037157536E0,9.014603338E0
2.126014852E0,-3.429693937E0,-4.466383457E0,7.104195118E0,9.065372026E0
2.128527821E0,-3.444059134E0,-4.576516628E0,7.137713909E0,9.151666931E0
2.131040842E0,-3.573346138E0,-4.705803394E0,7.118560314E0,9.251339857E0
2.133553915E0,-3.635595322E0,-4.854243755E0,7.108983517E0,9.344457310E0
2.136067040E0,-3.678690910E0,-5.074510574E0,7.113771915E0,9.480990204E0
2.138580165E0,-3.669114113E0,-5.304353714E0,7.104195118E0,9.595215212E0
2.141093290E0,-3.616441727E0,-5.438429356E0,7.022792339E0,9.590348109E0
2.143606311E0,-3.630806923E0,-5.591658115E0,6.898293495E0,9.593531807E0
2.146118967E0,-3.654748917E0,-5.711368084E0,6.773795128E0,9.584425672E0
2.148631623E0,-3.582922935E0,-5.835866451E0,6.625354767E0,9.528378655E0
2.151144279E0,-3.549403906E0,-5.965153694E0,6.448183537E0,9.474196409E0
2.153656936E0,-3.616441727E0,-6.060921669E0,6.242282391E0,9.422288028E0
2.156169592E0,-3.707421303E0,-6.132747650E0,6.069900036E0,9.391445730E0
2.158682248E0,-3.831919909E0,-6.209362030E0,5.916670799E0,9.393975748E0
2.161194644E0,-3.975571871E0,-6.257246017E0,5.801749229E0,9.413744927E0
2.163706988E0,-4.143166065E0,-6.257246017E0,5.758653641E0,9.459442083E0
2.166219332E0,-4.353855610E0,-6.247669220E0,5.773018837E0,9.556002085E0
2.168731675E0,-4.559757233E0,-6.218938828E0,5.787384033E0,9.641597384E0
2.171244019E0,-4.780023575E0,-6.204573631E0,5.758653641E0,9.721494282E0
2.173756363E0,-4.933252811E0,-6.199785233E0,5.725134850E0,9.775044208E0
2.176268707E0,-5.110423565E0,-6.209362030E0,5.682039261E0,9.846734281E0
2.178781102E0,-5.282805920E0,-6.199785233E0,5.610213280E0,9.890392730E0
2.181293498E0,-5.474342346E0,-6.238092422E0,5.543175697E0,9.980431754E0
2.183805894E0,-5.704185486E0,-6.247669220E0,5.456984043E0,1.006726267E1
2.186318290E0,-5.938817501E0,-6.314706802E0,5.385158062E0,1.020514589E1
2.188830686E0,-6.087257862E0,-6.343437195E0,5.308543682E0,1.027007983E1
2.191342925E0,-6.259640217E0,-6.285976410E0,5.236717701E0,1.030144686E1
2.193854748E0,-6.460753441E0,-6.252457619E0,5.150526524E0,1.036158698E1
2.196366519E0,-6.623558998E0,-6.247669220E0,5.107430935E0,1.043986376E1
2.198878238E0,-6.819883347E0,-6.281188011E0,5.069123745E0,1.056693651E1
2.201389957E0,-6.987477779E0,-6.276399612E0,5.035604954E0,1.065717388E1
2.203901675E0,-7.198167324E0,-6.161478043E0,5.030816555E0,1.072783947E1
2.206413446E0,-7.432799339E0,-6.056133270E0,5.040393353E0,1.083184293E1
2.208925269E0,-7.629123688E0,-5.989095688E0,5.073912144E0,1.094611254E1
2.211437196E0,-7.767987251E0,-5.979518890E0,5.117007732E0,1.105803058E1
2.213949227E0,-7.969100475E0,-5.960365295E0,5.184045315E0,1.122082184E1
2.216461415E0,-8.208520889E0,-5.926846504E0,5.236717701E0,1.139870769E1
2.218973759E0,-8.476671219E0,-5.878962040E0,5.270236492E0,1.158410732E1
2.221486259E0,-8.783128738E0,-5.835866451E0,5.294178486E0,1.179953446E1
2.223998915E0,-9.070432663E0,-5.826289654E0,5.342062473E0,1.203146006E1
2.226511727E0,-9.266757965E0,-5.816712856E0,5.471349239E0,1.223284980E1
2.229024696E0,-9.386467934E0,-5.802347660E0,5.672462463E0,1.240765284E1
2.231537821E0,-9.496601105E0,-5.773617268E0,5.859210014E0,1.256385414E1
2.234051050E0,-9.640253067E0,-5.773617268E0,5.983708382E0,1.273082486E1
2.236564384E0,-9.803058624E0,-5.764040470E0,6.103418827E0,1.290642640E1
2.239077769E0,-9.975440979E0,-5.749675274E0,6.203975201E0,1.307889509E1
2.241591154E0,-1.018613148E1,-5.730521679E0,6.242282391E0,1.324999029E1
2.244104540E0,-1.036330223E1,-5.711368084E0,6.299743176E0,1.340539155E1
2.246617925E0,-1.055004978E1,-5.706579685E0,6.304531574E0,1.355048783E1
2.249130998E0,-1.071764374E1,-5.697002888E0,6.290166378E0,1.367076890E1
2.251643654E0,-1.087087250E1,-5.706579685E0,6.242282391E0,1.377341679E1
2.254156102E0,-1.104325581E1,-5.725733280E0,6.117784023E0,1.386235196E1
2.256668550E0,-1.127309895E1,-5.749675274E0,5.998073578E0,1.400422837E1
2.259180998E0,-1.145026970E1,-5.792770863E0,5.892728806E0,1.412052135E1
2.261693446E0,-1.168968964E1,-5.883750439E0,5.806537628E0,1.431723585E1
2.264205894E0,-1.188601398E1,-5.850231647E0,5.773018837E0,1.445096140E1
2.266718342E0,-1.209670448E1,-5.706579685E0,5.763442039E0,1.456408511E1
2.269230790E0,-1.228824043E1,-5.629965305E0,5.753865242E0,1.469028003E1
2.271743290E0,-1.237443161E1,-5.510255337E0,5.701192856E0,1.469670274E1
2.274255790E0,-1.244625759E1,-5.438429356E0,5.629366875E0,1.470291173E1
2.276768290E0,-1.251808357E1,-5.395333767E0,5.514444828E0,1.470446002E1
2.279280790E0,-1.262821674E1,-5.251681328E0,5.385158062E0,1.469870546E1
2.281793342E0,-1.283890629E1,-5.108029366E0,5.188833714E0,1.475986023E1
2.284305946E0,-1.302086639E1,-4.973954201E0,5.016450882E0,1.481377607E1
2.286818550E0,-1.311663437E1,-4.839878559E0,4.810549736E0,1.478553044E1
2.289331207E0,-1.331774712E1,-4.629189014E0,4.489726543E0,1.479693967E1
2.291843915E0,-1.341351509E1,-4.452018261E0,4.255095005E0,1.475969807E1
2.294356675E0,-1.346139908E1,-4.341884613E0,3.991732836E0,1.469677373E1
2.296869436E0,-1.351885986E1,-4.284423828E0,3.737947464E0,1.466588254E1
2.299382196E0,-1.360983944E1,-4.236539841E0,3.512892485E0,1.468047727E1
2.301895009E0,-1.369603062E1,-4.145560265E0,3.316567898E0,1.468899408E1
2.304407821E0,-1.372476101E1,-4.025850296E0,3.139396906E0,1.464350874E1
2.306920686E0,-1.369603062E1,-3.925293684E0,2.952649355E0,1.455016575E1
2.309433602E0,-1.359068584E1,-3.834314108E0,2.737171173E0,1.438404715E1
2.311946571E0,-1.349491787E1,-3.786429882E0,2.459443808E0,1.423020462E1
2.314459540E0,-1.342788029E1,-3.776853085E0,2.181716204E0,1.411851528E1
2.316972509E0,-1.342309189E1,-3.776853085E0,1.884835243E0,1.407112714E1
2.319485477E0,-1.341830349E1,-3.834314108E0,1.597531080E0,1.404652764E1
2.321997509E0,-1.337520790E1,-3.872621298E0,1.453878999E0,1.400025522E1
2.324509540E0,-1.343266869E1,-3.920505285E0,1.295861721E0,1.405297859E1
2.327021571E0,-1.345661068E1,-3.939658880E0,1.109113932E0,1.406525566E1
2.329533602E0,-1.361462784E1,-3.987542868E0,1.013345838E0,1.422270927E1
2.332045686E0,-1.379658699E1,-4.030638695E0,7.930793166E-1,1.439516709E1
2.334557821E0,-1.391629696E1,-4.064157486E0,6.350619793E-1,1.451151270E1
2.337070061E0,-1.393545055E1,-4.040215492E0,5.919663906E-1,1.452138243E1
2.339582404E0,-1.392108536E1,-3.992331266E0,5.871779919E-1,1.449414035E1
2.342094904E0,-1.394023895E1,-3.896563292E0,5.919663906E-1,1.448667980E1
2.344607561E0,-1.399291229E1,-3.796006680E0,5.632359385E-1,1.450960013E1
2.347120790E0,-1.408868027E1,-3.695450306E0,5.297171474E-1,1.457490531E1
2.349634123E0,-1.419881344E1,-3.614047527E0,4.578910768E-1,1.465869390E1
2.352147509E0,-1.427063942E1,-3.542221308E0,3.860650361E-1,1.470875683E1
2.354660894E0,-1.429936981E1,-3.470395327E0,3.190273643E-1,1.471792782E1
2.357173342E0,-1.434246540E1,-3.393780947E0,2.328361124E-1,1.474036212E1
2.359685321E0,-1.431373501E1,-3.350685358E0,1.179144308E-1,1.470115662E1
2.362197092E0,-1.428500462E1,-3.326743364E0,-2.573766746E-2,1.466728471E1
2.364708863E0,-1.425627422E1,-3.326743364E0,-8.798690885E-2,1.463954637E1
2.367220634E0,-1.417965984E1,-3.307589531E0,-1.454477459E-1,1.456104587E1
2.369732404E0,-1.338957310E1,-3.274070740E0,3.172317147E-2,1.378409276E1
2.372244227E0,-1.324592113E1,-3.283647537E0,2.376245260E-1,1.364892792E1
2.374756154E0,-1.337041950E1,-3.254917145E0,1.735796221E-2,1.376091947E1
2.377268186E0,-1.353801346E1,-3.326743364E0,-4.489128292E-2,1.394084090E1
2.379780321E0,-1.385404778E1,-3.365050554E0,-2.699462473E-1,1.425942060E1
2.382292561E0,-1.407431507E1,-3.427299738E0,-5.093663931E-1,1.449455699E1
2.384804957E0,-1.419402504E1,-3.446453333E0,-6.913257241E-1,1.462280133E1
2.387317509E0,-1.430415821E1,-3.412934542E0,-9.355342984E-1,1.473540935E1
2.389830217E0,-1.429936981E1,-3.326743364E0,-1.241992116E0,1.473369413E1
2.392343082E0,-1.423233223E1,-3.226186752E0,-1.514931083E0,1.467182940E1
2.394856102E0,-1.420839024E1,-3.125630379E0,-1.787870169E0,1.465757136E1
2.397369227E0,-1.405037308E1,-3.029862165E0,-2.089539528E0,1.452443540E1
2.399882457E0,-1.351885986E1,-2.948459387E0,-2.223614931E0,1.401418739E1
2.402395738E0,-1.313099957E1,-2.929305792E0,-2.209249735E0,1.363395637E1
2.404909019E0,-1.308311558E1,-2.972401381E0,-2.305017710E0,1.361308892E1
2.407422300E0,-1.318846035E1,-3.092111588E0,-2.458246708E0,1.376733879E1
2.409934957E0,-1.325549793E1,-3.211821556E0,-2.597110271E0,1.388412781E1
2.412447404E0,-1.325070953E1,-3.312378168E0,-2.697666883E0,1.392230437E1
2.414959279E0,-1.319803715E1,-3.331531763E0,-2.712032080E0,1.387956795E1
2.417471154E0,-1.315015316E1,-3.326743364E0,-2.779069662E0,1.384619001E1
2.419983029E0,-1.309269238E1,-3.307589531E0,-2.812588453E0,1.379381731E1
2.422494957E0,-1.302565479E1,-3.293224335E0,-2.846107244E0,1.373365704E1
2.425006988E0,-1.297776985E1,-3.274070740E0,-2.855684042E0,1.368564872E1
2.427519123E0,-1.292988586E1,-3.283647537E0,-2.879626036E0,1.364758351E1
2.430031363E0,-1.285327148E1,-3.298012733E0,-2.755127668E0,1.355264566E1
2.432543759E0,-1.280059910E1,-3.355473757E0,-2.587533474E0,1.348368907E1
2.435056311E0,-1.273356152E1,-3.460818529E0,-2.472611904E0,1.342515041E1
2.437569019E0,-1.267610073E1,-3.566163540E0,-2.357690096E0,1.337758404E1
2.440081884E0,-1.262821674E1,-3.623624325E0,-2.252345324E0,1.332950002E1
2.442594904E0,-1.262821674E1,-3.690661907E0,-2.185307503E0,1.333673170E1
2.445108029E0,-1.260906315E1,-3.752911091E0,-2.137423515E0,1.332821798E1
2.447621259E0,-1.255160236E1,-3.810372114E0,-2.079962730E0,1.328111074E1
2.450134540E0,-1.246541119E1,-3.925293684E0,-2.032078743E0,1.322587428E1
2.452647873E0,-1.237443161E1,-3.973177671E0,-1.888426542E0,1.313312047E1
2.455161207E0,-1.227866364E1,-4.035427094E0,-1.754351258E0,1.304331249E1
2.457674540E0,-1.213501167E1,-4.092887878E0,-1.682525277E0,1.291669969E1
2.460187717E0,-1.195783997E1,-4.155137062E0,-1.644217968E0,1.276552206E1
2.462700477E0,-1.179024601E1,-4.174290657E0,-1.457470298E0,1.259201426E1
2.465213238E0,-1.160828686E1,-4.198232651E0,-1.323395014E0,1.241486430E1
2.467725998E0,-1.100494766E1,-4.274847031E0,-1.318606615E0,1.187947447E1
2.470238759E0,-1.083735371E1,-4.270058632E0,-1.107916832E0,1.170081689E1
2.472751519E0,-1.085171890E1,-4.279635429E0,-1.060032845E0,1.171318711E1
2.475264227E0,-1.092833328E1,-4.279635429E0,-1.160589218E0,1.179367267E1
2.477776779E0,-1.103846741E1,-4.284423828E0,-1.251568913E0,1.190674074E1
2.480289332E0,-1.117254257E1,-4.255693436E0,-1.127070427E0,1.200861865E1
2.482801884E0,-1.122042656E1,-4.203021049E0,-1.074398041E0,1.202986655E1
2.485314436E0,-1.118690777E1,-4.150348663E0,-1.203684926E0,1.199254589E1
2.487826988E0,-1.114381218E1,-4.064157486E0,-1.160589218E0,1.191842663E1
2.490339540E0,-1.111029339E1,-3.958812475E0,-1.021725535E0,1.183869665E1
2.492852092E0,-1.114381218E1,-3.867832899E0,-9.594763517E-1,1.183491766E1
2.495364644E0,-1.111508179E1,-3.824737310E0,-9.786299467E-1,1.179539636E1
2.497877248E0,-1.093791008E1,-3.805583715E0,-9.211691022E-1,1.161761149E1
2.500389904E0,-1.086129570E1,-3.810372114E0,-7.631517649E-1,1.153555723E1
2.502902613E0,-1.093791008E1,-3.800795317E0,-7.775170207E-1,1.160553552E1
2.505415373E0,-1.104325581E1,-3.805583715E0,-8.206126094E-1,1.170937109E1
2.507928186E0,-1.110550499E1,-3.819948912E0,-8.493430614E-1,1.177478808E1
2.510441050E0,-1.124915695E1,-3.834314108E0,-8.014590144E-1,1.191166795E1
2.512953967E0,-1.138802052E1,-3.815160513E0,-6.721721292E-1,1.202889340E1
2.515466936E0,-1.147900009E1,-3.786429882E0,-5.811924338E-1,1.210133377E1
2.517979904E0,-1.154603767E1,-3.762487888E0,-5.811924338E-1,1.215751149E1
2.520492873E0,-1.151251888E1,-3.743334293E0,-4.854243994E-1,1.211553876E1
2.523005842E0,-1.146942329E1,-3.724180698E0,-3.752911091E-1,1.206474351E1
2.525518811E0,-1.143111610E1,-3.743334293E0,-3.848679364E-1,1.203457894E1
2.528031779E0,-1.130182934E1,-3.810372114E0,-4.327519536E-1,1.193472062E1
2.530544748E0,-1.115817738E1,-3.901351690E0,-5.045779943E-1,1.183131718E1
2.533057665E0,-1.134492493E1,-3.939658880E0,-3.034650683E-1,1.201333945E1
2.535570477E0,-1.125394535E1,-3.939658880E0,-3.130418658E-1,1.192770696E1
2.538083186E0,-1.115817738E1,-4.040215492E0,-4.758476019E-1,1.187664492E1
2.540595894E0,-1.100015926E1,-4.193444252E0,-5.811924338E-1,1.178669857E1
2.543108602E0,-1.076073933E1,-4.361038208E0,-4.471171796E-1,1.161946982E1
2.545621311E0,-1.055962658E1,-4.499902248E0,-4.471171796E-1,1.148715576E1
2.548134019E0,-1.032978344E1,-4.600458622E0,-5.716156363E-1,1.132234030E1
2.550646727E0,-1.002811337E1,-4.720168591E0,-7.344213724E-1,1.110776413E1
2.553159436E0,-9.544485092E0,-5.074510574E0,-9.594763517E-1,1.085211722E1
2.555672144E0,-9.017760277E0,-5.543774128E0,-1.098340034E0,1.064235795E1
2.558184852E0,-8.558073997E0,-6.051344872E0,-1.189319730E0,1.054864383E1
2.560697561E0,-8.036137581E0,-6.630741596E0,-1.270722508E0,1.049575995E1
2.563210269E0,-7.528567314E0,-7.186196327E0,-1.390432596E0,1.050019268E1
2.565722977E0,-7.088034153E0,-7.732074261E0,-1.490989089E0,1.059472741E1
2.568235686E0,-6.791152954E0,-8.201337814E0,-1.577180386E0,1.076425559E1
2.570748394E0,-6.508637428E0,-8.603564262E0,-1.663371682E0,1.091560738E1
2.573260946E0,-6.168660641E0,-8.943540573E0,-1.759139657E0,1.100608306E1
2.575773498E0,-5.948394299E0,-9.120711327E0,-1.811812162E0,1.103872425E1
2.578286050E0,-5.809530258E0,-9.091980934E0,-1.931522250E0,1.096109198E1
2.580798602E0,-5.886145115E0,-8.737639427E0,-2.147000313E0,1.075186762E1
2.583311154E0,-6.106411457E0,-8.225279808E0,-2.237980127E0,1.048580201E1
2.585823707E0,-6.360196590E0,-7.784746647E0,-2.060809135E0,1.026164292E1
2.588336259E0,-6.551733017E0,-7.406463146E0,-1.807023764E0,1.005217572E1
2.590848811E0,-6.714538574E0,-6.898892403E0,-1.773504853E0,9.789027741E0
2.593361363E0,-6.939593792E0,-6.625953197E0,-1.701678872E0,9.744584586E0
2.595873915E0,-6.944382191E0,-6.965929985E0,-1.064821243E0,9.893556936E0
2.598386519E0,-6.546944618E0,-7.305906296E0,-5.907692909E-1,9.827907152E0
2.600899175E0,-6.321889400E0,-7.387309551E0,-5.955576897E-1,9.741320083E0
2.603411884E0,-6.211756229E0,-7.492654324E0,-6.290764809E-1,9.753026273E0
2.605924644E0,-6.250063419E0,-7.540538311E0,-8.110358119E-1,9.827552587E0
2.608437457E0,-6.388927460E0,-7.483077526E0,-9.307458997E-1,9.883376512E0
2.610950321E0,-6.628347397E0,-7.210138321E0,-1.031302333E0,9.848079423E0
2.613463186E0,-6.901286602E0,-6.874950409E0,-1.174954534E0,9.811891665E0
2.615976050E0,-7.044938564E0,-6.606799603E0,-1.208473325E0,9.733517768E0
2.618488915E0,-7.193378925E0,-6.305130005E0,-1.222838521E0,9.643375902E0
2.621001779E0,-7.322665691E0,-6.060921669E0,-1.151012421E0,9.575021352E0
2.623514540E0,-7.337030888E0,-5.931634903E0,-1.112705231E0,9.500233039E0
2.626026936E0,-7.356184959E0,-5.821501255E0,-1.103128433E0,9.445645894E0
2.628539332E0,-7.332242489E0,-5.845443249E0,-1.031302333E0,9.433693401E0
2.631051727E0,-7.404068947E0,-5.783194065E0,-1.026513934E0,9.450888922E0
2.633564123E0,-7.566874504E0,-5.711368084E0,-9.211691022E-1,9.525012738E0
2.636076519E0,-7.772775650E0,-5.687426090E0,-7.392097712E-1,9.659673282E0
2.638588915E0,-8.170213699E0,-5.538985729E0,-6.051344872E-1,9.889334788E0
2.641101311E0,-8.471882820E0,-5.419275761E0,-3.082534671E-1,1.006162852E1
2.643613707E0,-8.701725960E0,-5.304353714E0,-1.310825497E-1,1.019182936E1
2.646126102E0,-8.926780701E0,-5.160701752E0,1.735796221E-2,1.031118604E1
2.648638498E0,-9.103952408E0,-4.945223808E0,8.439560980E-2,1.036070995E1
2.651150894E0,-9.233239174E0,-4.739322186E0,1.179144308E-1,1.037919960E1
2.653663342E0,-9.419986725E0,-4.552574635E0,2.184709013E-1,1.046469375E1
2.656175842E0,-9.688137054E0,-4.246116638E0,1.993172914E-1,1.057966131E1
2.658688394E0,-9.894038200E0,-3.930082083E0,2.472013235E-1,1.064888002E1
2.661200998E0,-1.003769016E1,-3.757699490E0,3.764882088E-1,1.072461060E1
2.663713654E0,-9.917980194E0,-3.700238705E0,6.446388364E-1,1.060535982E1
2.666226311E0,-9.606734276E0,-3.867832899E0,1.147421122E0,1.041950335E1
2.668738967E0,-9.927556992E0,-3.848679304E0,1.032499433E0,1.069741909E1
2.671251311E0,-1.008557510E1,-3.872621298E0,9.941922426E-1,1.084916767E1
2.673763654E0,-9.879673004E0,-4.092887878E0,1.142632723E0,1.075477937E1
2.676275998E0,-9.362525940E0,-4.423287868E0,1.405994892E0,1.044984159E1
2.678788342E0,-9.027337074E0,-4.729745388E0,1.702875972E0,1.033262274E1
2.681300686E0,-8.720879555E0,-5.026626587E0,2.253542423E0,1.031499726E1
2.683813029E0,-8.706514359E0,-5.103240967E0,2.397194386E0,1.037270464E1
2.686325425E0,-8.500613213E0,-5.155913353E0,2.492962599E0,1.024981610E1
2.688837873E0,-8.361749649E0,-5.194220543E0,2.492962599E0,1.015448900E1
2.691350373E0,-8.237251282E0,-5.141548157E0,2.564788580E0,1.004320500E1
2.693862925E0,-8.309077263E0,-5.007472992E0,2.569576979E0,1.003584957E1
2.696375582E0,-8.596381187E0,-4.662707806E0,2.459443808E0,1.008402090E1
2.698888290E0,-8.725667953E0,-4.308365822E0,2.536058187E0,1.005638546E1
2.701401050E0,-8.888473511E0,-3.963600874E0,2.722805977E0,1.010587778E1
2.703913915E0,-8.907627106E0,-3.657143116E0,3.105878115E0,1.011765760E1
2.706426832E0,-8.869319916E0,-3.422511339E0,3.211223125E0,1.003445931E1
2.708939800E0,-9.012971878E0,-3.192667961E0,3.177704096E0,1.007594135E1
2.711452821E0,-9.075222015E0,-2.919728994E0,3.043628931E0,1.000740471E1
2.713965894E0,-9.070432663E0,-2.890998602E0,2.885611534E0,9.947732181E0
2.716479019E0,-8.984241486E0,-3.092111588E0,2.727594376E0,9.885217257E0
2.718992196E0,-8.883685112E0,-3.288435936E0,2.679710150E0,9.844517183E0
2.721505373E0,-8.668207169E0,-3.417722940E0,2.708440781E0,9.703313716E0
2.724018550E0,-8.706514359E0,-3.345896959E0,2.382829189E0,9.626852740E0
2.726531623E0,-9.075222015E0,-2.914940596E0,1.975814939E0,9.734494233E0
2.729044384E0,-9.755174637E0,-1.981201887E0,1.573589087E0,1.007793509E1
2.731556832E0,-1.005684471E1,-1.401805043E0,2.272696018E0,1.040530298E1
2.734069279E0,-1.049737740E1,-1.210268974E0,3.359663486E0,1.108814781E1
2.736581727E0,-1.032020664E1,-1.459265947E0,3.306991100E0,1.093491255E1
2.739094175E0,-9.539696693E0,-2.287659645E0,2.200869799E0,1.005400555E1
2.741606675E0,-8.668207169E0,-3.178302765E0,1.219247222E0,9.312678872E0
2.744119227E0,-8.131906509E0,-3.705027103E0,9.175778031E-1,8.983155255E0
2.746631832E0,-7.897274494E0,-3.848679304E0,1.046864748E0,8.847327428E0
2.749144488E0,-7.600393295E0,-3.829525709E0,1.161786318E0,8.589586303E0
2.751657196E0,-7.346607685E0,-3.954024076E0,1.166574836E0,8.424241671E0
2.754169957E0,-7.284358501E0,-4.135983467E0,9.894038439E-1,8.434877473E0
2.756682769E0,-7.131129742E0,-4.294000626E0,7.260416746E-1,8.355751868E0
2.759195634E0,-7.150283337E0,-4.279635429E0,5.632359385E-1,8.352189289E0
2.761708550E0,-7.284358501E0,-4.131195068E0,7.547720671E-1,8.408230036E0
2.764221519E0,-7.461529732E0,-3.891774893E0,1.104325533E0,8.487630567E0
2.766734540E0,-7.614758492E0,-3.618835926E0,1.544858694E0,8.571295627E0
2.769247561E0,-7.576451302E0,-3.412934542E0,1.817797661E0,8.506181567E0
2.771760582E0,-7.418434143E0,-3.293224335E0,1.927930951E0,8.342386314E0
2.774273602E0,-7.179013729E0,-3.283647537E0,1.846528053E0,8.107419141E0
2.776786623E0,-6.958747387E0,-3.398569345E0,1.765125155E0,7.942928025E0
2.779299644E0,-6.724115372E0,-3.594893932E0,1.784278870E0,7.830749709E0
2.781812665E0,-6.585251808E0,-3.896563292E0,1.702875972E0,7.838911496E0
2.784325686E0,-6.427234650E0,-4.217386246E0,1.607107878E0,7.853565287E0
2.786838707E0,-6.551733017E0,-4.423287868E0,1.530493379E0,8.051899843E0
2.789351727E0,-6.546944618E0,-4.614823818E0,1.592742682E0,8.166756514E0
2.791864748E0,-6.503849030E0,-4.696226597E0,1.640626669E0,8.188177594E0
2.794377769E0,-6.513425827E0,-4.715380192E0,1.741183162E0,8.227468940E0
2.796890842E0,-6.489483833E0,-4.748898983E0,1.899200439E0,8.262711679E0
2.799403967E0,-6.369773388E0,-4.835090160E0,1.717241168E0,8.179304806E0
2.801917144E0,-6.441599846E0,-5.021838188E0,1.396418095E0,8.286317086E0
2.804430321E0,-6.609193802E0,-5.165490150E0,1.209670424E0,8.475083111E0
2.806943498E0,-6.652289391E0,-5.270834923E0,1.319803715E0,8.589326910E0
2.809456623E0,-6.858190536E0,-5.208585739E0,1.243189216E0,8.701129942E0
2.811968759E0,-7.231686115E0,-4.997896194E0,1.104325533E0,8.859784722E0
2.814480894E0,-7.337030888E0,-4.926070213E0,9.894038439E-1,8.892531133E0
2.816993029E0,-7.533355713E0,-4.825513363E0,8.409633636E-1,8.985780261E0
2.819505217E0,-7.581239700E0,-4.801571369E0,1.018134236E0,9.031438442E0
2.822017457E0,-7.590816498E0,-4.811148167E0,9.606734514E-1,9.038281654E0
2.824529800E0,-7.700949669E0,-4.715380192E0,5.919663906E-1,9.049301651E0
2.827042248E0,-7.954735279E0,-4.590881824E0,5.105634928E-1,9.198624047E0
2.829554800E0,-8.079233170E0,-4.447229862E0,6.015431881E-1,9.241954137E0
2.832067509E0,-8.265981674E0,-4.327519417E0,3.286041915E-1,9.336051524E0
2.834580373E0,-8.347384453E0,-4.303577423E0,-1.119289324E-1,9.392131490E0
2.837093394E0,-8.333019257E0,-4.193444252E0,3.172317147E-2,9.328729334E0
2.839606519E0,-8.395268440E0,-4.183867455E0,-1.071405262E-1,9.380658727E0
2.842119748E0,-8.438364029E0,-4.198232651E0,-3.034650683E-1,9.429911766E0
2.844633082E0,-8.471882820E0,-4.217386246E0,-1.310825497E-1,9.464477159E0
2.847146467E0,-8.567650795E0,-4.207809448E0,-3.130418658E-1,9.550303435E0
2.849659957E0,-8.553285599E0,-4.270058632E0,-4.088099301E-1,9.568658256E0
2.852173498E0,-8.610746384E0,-4.346673012E0,-2.651578486E-1,9.649291593E0
2.854687092E0,-8.744821548E0,-4.471171856E0,-5.237316489E-1,9.835526245E0
2.857200738E0,-8.950722694E0,-4.452018261E0,-3.513490856E-1,1.000296704E1
2.859714436E0,-9.151836395E0,-4.499902248E0,-2.795230448E-1,1.020212541E1
2.862228186E0,-9.319430351E0,-4.480748653E0,-2.938882709E-1,1.034481807E1
2.864741936E0,-9.458293915E0,-4.150348663E0,-4.902127981E-1,1.034045581E1
2.867255686E0,-9.554061890E0,-4.006696701E0,-4.010287672E-2,1.036027631E1
2.869769123E0,-9.578003883E0,-4.121618271E0,2.902969420E-1,1.043121124E1
2.872282196E0,-9.573215485E0,-4.231751442E0,5.201402903E-1,1.047972905E1
2.874795269E0,-9.678560257E0,-4.179079056E0,3.669114113E-1,1.054864230E1
2.877308082E0,-9.822212219E0,-3.949235678E0,2.663549483E-1,1.058977149E1
2.879820894E0,-9.884461403E0,-3.666719913E0,7.960720360E-2,1.054294785E1
2.882333707E0,-9.951498985E0,-3.178302765E0,-4.010287672E-2,1.044679610E1
2.884846519E0,-9.922768593E0,-3.092111588E0,1.897404790E-1,1.039511867E1
2.887359332E0,-9.764751434E0,-3.116053581E0,2.424129248E-1,1.025275205E1
2.889872144E0,-9.750386238E0,-2.934094191E0,-2.172738016E-1,1.018460350E1
2.892384957E0,-9.774328232E0,-2.584540844E0,-5.428852439E-1,1.012482435E1
2.894897769E0,-9.649829865E0,-2.455253839E0,-6.147112846E-1,9.976239662E0
2.897410582E0,-9.458293915E0,-2.302024841E0,-4.997895956E-1,9.747226877E0
2.899923186E0,-9.175778389E0,-2.263717651E0,-5.333084464E-1,9.465925446E0
2.902435790E0,-8.888473511E0,-2.306813240E0,-7.727286220E-1,9.215392460E0
2.904948394E0,-8.859743118E0,-2.081758261E0,-4.375403523E-1,9.111542522E0
2.907460582E0,-8.902838707E0,-1.962048292E0,-3.034650683E-1,9.121527372E0
2.909972561E0,-8.826224327E0,-2.014720678E0,-5.045779943E-1,9.067300273E0
2.912484540E0,-8.749609947E0,-2.033874273E0,-4.135983288E-1,8.992406928E0
2.914996519E0,-8.529343605E0,-2.139219284E0,-4.231751561E-1,8.803694605E0
2.917508498E0,-8.093599319E0,-2.349909067E0,-5.572504401E-1,8.446238845E0
2.920020529E0,-7.657854080E0,-2.460042238E0,-5.237316489E-1,8.060324545E0
2.922532613E0,-7.183802128E0,-2.574964046E0,-6.386532784E-1,7.658023953E0
2.925044800E0,-6.460753441E0,-2.709039211E0,-5.524620414E-1,7.027477697E0
2.927557144E0,-5.895721912E0,-2.857479811E0,-5.764040351E-1,6.577003067E0
2.930069696E0,-5.249287128E0,-2.981978178E0,-6.147112846E-1,6.068367093E0
2.932582457E0,-4.468777657E0,-3.111265182E0,-6.003460884E-1,5.478171246E0
2.935095425E0,-3.769670486E0,-3.226186752E0,-7.966706157E-1,5.025274182E0
2.937608602E0,-3.180696964E0,-3.379415751E0,-9.020155072E-1,4.727675535E0
2.940121988E0,-2.620453835E0,-3.566163540E0,-1.074398041E0,4.553968801E0
2.942635529E0,-2.031480074E0,-3.786429882E0,-1.218050122E0,4.466274582E0
2.945149227E0,-1.351526856E0,-4.049792290E0,-1.342548609E0,4.475475304E0
2.947663029E0,-6.763619781E-1,-4.327519417E0,-1.342548609E0,4.581192704E0
2.950176936E0,-9.696517140E-2,-4.610035419E0,-1.246780515E0,4.776640081E0
2.952690894E0,3.100491166E-1,-4.892550945E0,-1.103128433E0,5.024945527E0
2.955208811E0,5.015852451E-1,-5.170278549E0,-8.493430614E-1,5.263530343E0
2.957726727E0,3.866635859E-1,-5.424064159E0,-7.200561762E-1,5.485295036E0
2.960176727E0,-3.411737382E-1,-5.773617268E0,-3.896563351E-1,5.796799801E0
2.962626727E0,-7.003039718E-1,-5.922058105E0,-2.172738016E-1,5.967277919E0
2.965176727E0,-1.112106681E0,-6.084863663E0,-2.094926499E-2,6.185692034E0
2.967726727E0,-1.495178938E0,-6.218938828E0,7.960720360E-2,6.396647364E0
2.970276727E0,-1.887827992E0,-6.348225594E0,1.897404790E-1,6.625697259E0
2.972826727E0,-2.275688648E0,-6.396110058E0,2.184709013E-1,6.792401065E0
2.975376727E0,-2.754528999E0,-6.372167587E0,2.472013235E-1,6.946442130E0
2.977926727E0,-3.190273762E0,-6.357802391E0,3.669114113E-1,7.122788913E0
2.980476727E0,-3.496731520E0,-6.242880821E0,4.866214991E-1,7.171993639E0
2.983026727E0,-3.659537315E0,-6.060921669E0,5.776011348E-1,7.103563043E0
2.985576727E0,-3.822343111E0,-5.859808445E0,6.254851818E-1,7.024164974E0
2.988126727E0,-4.104858875E0,-5.658695698E0,5.105634928E-1,7.009377894E0
2.990676727E0,-4.545392036E0,-5.476736546E0,3.669114113E-1,7.126700214E0
2.993226727E0,-5.052962780E0,-5.337872505E0,1.849520802E-1,7.352518141E0
2.995776727E0,-5.459977150E0,-5.242104530E0,7.960720360E-2,7.569501152E0
2.998326727E0,-5.866991043E0,-5.131971359E0,-2.094926499E-2,7.794815765E0
3.000876727E0,-6.259640217E0,-5.007472992E0,-2.172738016E-1,8.019045412E0
3.003426727E0,-6.642712593E0,-4.906916618E0,-4.471171796E-1,8.270633293E0
3.005976727E0,-7.260416508E0,-4.758475780E0,-6.386532784E-1,8.704287313E0
3.008526727E0,-7.988254070E0,-4.581305027E0,-7.775170207E-1,9.241487519E0
3.011076727E0,-8.366538048E0,-4.471171856E0,-9.546879530E-1,9.534241751E0
3.013626727E0,-8.749609947E0,-4.317942619E0,-1.055244446E0,9.813961663E0
3.016176727E0,-9.065644264E0,-4.226963043E0,-1.021725535E0,1.005470266E1
3.018726727E0,-9.281123161E0,-4.203021049E0,-8.445546627E-1,1.022339991E1
3.021276727E0,-9.927556992E0,-4.035427094E0,-6.769605279E-1,1.073775280E1
3.023826727E0,-1.066018295E1,-3.791218281E0,-7.487865686E-1,1.133902632E1
3.026376727E0,-1.140717411E1,-3.561375141E0,-8.637082577E-1,1.198136078E1
3.028926727E0,-1.205360889E1,-3.216609955E0,-9.355342984E-1,1.251044729E1
3.031476727E0,-1.247498798E1,-2.828749418E0,-1.040879130E0,1.283396189E1
3.034026727E0,-1.283890629E1,-2.421735048E0,-1.050456047E0,1.310747013E1
3.036576727E0,-1.315015316E1,-2.053027868E0,-9.834183455E-1,1.334573202E1
3.039126727E0,-1.340872669E1,-1.717839718E0,-1.060032845E0,1.355981543E1
3.041676727E0,-1.374870300E1,-1.363497853E0,-1.275510907E0,1.387490140E1
3.044226727E0,-1.387320137E1,-1.258152962E0,-1.423951507E0,1.400272484E1
3.046776727E0,-1.396896935E1,-1.258152962E0,-1.471835494E0,1.410253003E1
3.049326727E0,-1.414614105E1,-1.258152962E0,-1.514931083E0,1.428255130E1
3.051876727E0,-1.428021622E1,-1.353921056E0,-1.529296279E0,1.442554763E1
3.054426727E0,-1.436640739E1,-1.507149935E0,-1.586757183E0,1.453213545E1
3.056976727E0,-1.438077259E1,-1.732204914E0,-1.692102075E0,1.458322199E1
3.059526727E0,-1.439513779E1,-1.985990286E0,-1.850119352E0,1.464879145E1
3.062076727E0,-1.439513779E1,-2.254140854E0,-2.022501945E0,1.471025686E1
3.064626727E0,-1.438556099E1,-2.541445017E0,-2.142211914E0,1.476456500E1
3.067176727E0,-1.438077259E1,-2.852691412E0,-2.218826532E0,1.482793512E1
3.069726727E0,-1.453878975E1,-3.096899986E0,-2.281075716E0,1.503896617E1
3.072276727E0,-1.438077259E1,-3.350685358E0,-2.252345324E0,1.493675909E1
3.074826727E0,-1.431852341E1,-3.508702517E0,-2.132635117E0,1.489561138E1
3.077376727E0,-1.435204220E1,-3.575740337E0,-2.022501945E0,1.492841413E1
3.079926727E0,-1.439034939E1,-3.618835926E0,-1.926733851E0,1.496296870E1
3.082476727E0,-1.434246540E1,-3.623624325E0,-1.816600561E0,1.490426129E1
3.085026727E0,-1.435683060E1,-3.599682331E0,-1.668160081E0,1.489493389E1
3.087576727E0,-1.422275543E1,-3.618835926E0,-1.500565886E0,1.475243856E1
3.090126727E0,-1.430415821E1,-3.542221308E0,-1.366490602E0,1.479944494E1
3.092676727E0,-1.428979301E1,-3.542221308E0,-1.347337008E0,1.478380307E1
3.095226727E0,-1.436640739E1,-3.489548922E0,-1.356913805E0,1.484627321E1
3.097776727E0,-1.421796703E1,-3.551798105E0,-1.404797792E0,1.472206892E1
3.100326727E0,-1.417965984E1,-3.580528736E0,-1.510142684E0,1.470249878E1
3.102876727E0,-1.411741066E1,-3.647566319E0,-1.720832467E0,1.468220992E1
3.105426727E0,-1.392108536E1,-3.733757496E0,-1.902791858E0,1.453816286E1
3.107976727E0,-1.369603062E1,-3.738545895E0,-2.056020737E0,1.434521528E1
3.110526727E0,-1.353322506E1,-3.609259129E0,-2.343324900E0,1.420091911E1
3.113076727E0,-1.341351509E1,-3.551798105E0,-2.716820478E0,1.413926343E1
3.115626727E0,-1.332253551E1,-3.566163540E0,-3.037643433E0,1.412213697E1
3.118176727E0,-1.336084270E1,-3.637989521E0,-3.324947596E0,1.424086943E1
3.120726727E0,-1.342788029E1,-3.757699490E0,-3.545214176E0,1.438738399E1
3.123276727E0,-1.337999630E1,-3.886986494E0,-3.674500942E0,1.440954275E1
3.125801259E0,-1.358589745E1,-3.939658880E0,-3.741538763E0,1.463204134E1
3.128309436E0,-1.346139908E1,-4.011485100E0,-3.842095137E0,1.456238212E1
3.130817561E0,-1.302086639E1,-4.073734283E0,-3.803787947E0,1.416358272E1
3.133325686E0,-1.258990955E1,-4.131195068E0,-3.664924145E0,1.374788217E1
3.135833811E0,-1.229781723E1,-4.231751442E0,-3.492541790E0,1.346632381E1
3.138341936E0,-1.217331886E1,-4.356249809E0,-3.329735994E0,1.335117022E1
3.140850061E0,-1.222120285E1,-4.480748653E0,-3.152565002E0,1.339304199E1
3.143358186E0,-1.230260563E1,-4.619612217E0,-2.965817451E0,1.347185939E1
3.145866311E0,-1.237443161E1,-4.744110584E0,-2.769492865E0,1.353895246E1
3.148374436E0,-1.239358521E1,-4.868608952E0,-2.525284290E0,1.355290995E1
3.150882561E0,-1.239358521E1,-4.969165802E0,-2.285864115E0,1.354690879E1
3.153390686E0,-1.242710400E1,-5.021838188E0,-2.003348351E0,1.355231261E1
3.155898811E0,-1.248935318E1,-5.050568581E0,-1.716044068E0,1.358075819E1
3.158406936E0,-1.254202557E1,-5.050568581E0,-1.443105102E0,1.359754392E1
3.160915061E0,-1.255160236E1,-5.017049789E0,-1.208473325E0,1.357106916E1
3.163423186E0,-1.255160236E1,-4.940435410E0,-1.002571940E0,1.352611454E1
3.165931311E0,-1.250850677E1,-4.854243755E0,-8.445546627E-1,1.344394647E1
3.168439436E0,-1.245104599E1,-4.715380192E0,-7.679402232E-1,1.333615720E1
3.170947561E0,-1.238400841E1,-4.552574635E0,-7.727286220E-1,1.321690999E1
3.173455686E0,-1.229302883E1,-4.456806660E0,-7.535749674E-1,1.309769288E1
3.175963811E0,-1.221162605E1,-4.327519417E0,-8.158242106E-1,1.298140225E1
3.178471936E0,-1.217810726E1,-4.150348663E0,-9.929951429E-1,1.290417490E1
3.180980061E0,-1.241273880E1,-3.963600874E0,-1.083974838E0,1.307521387E1
3.183488186E0,-1.260427475E1,-3.786429882E0,-1.198896527E0,1.321522403E1
3.185996311E0,-1.254681396E1,-3.661931515E0,-1.371279001E0,1.314201998E1
3.188504436E0,-1.239358521E1,-3.532644510E0,-1.625064373E0,1.298927887E1
3.191012561E0,-1.223556805E1,-3.403357744E0,-1.816600561E0,1.282934164E1
3.193520686E0,-1.208712769E1,-3.288435936E0,-2.003348351E0,1.268565612E1
3.196028811E0,-1.205360889E1,-3.226186752E0,-2.103904724E0,1.265401847E1
3.198536936E0,-1.200093555E1,-3.221398354E0,-2.170942307E0,1.261399429E1
3.201045061E0,-1.215416527E1,-3.178302765E0,-2.204461098E0,1.275480265E1
3.203553186E0,-1.243189240E1,-3.082534790E0,-2.386420488E0,1.302877477E1
3.206061311E0,-1.248456478E1,-3.015496969E0,-2.458246708E0,1.307671811E1
3.208569436E0,-1.256117916E1,-2.905363798E0,-2.496553898E0,1.313229386E1
3.211077561E0,-1.257554436E1,-2.785653591E0,-2.491765499E0,1.311918736E1
3.213585686E0,-1.275271511E1,-2.570175409E0,-2.659359455E0,1.327816768E1
3.216093811E0,-1.304001999E1,-2.263717651E0,-2.917933226E0,1.355289169E1
3.218601936E0,-1.342788029E1,-1.832761407E0,-3.305794001E0,1.394974040E1
3.221110061E0,-1.362899303E1,-1.483207941E0,-3.310582399E0,1.410352129E1
3.223618186E0,-1.363856983E1,-1.219845772E0,-3.296217203E0,1.408416340E1
3.226126311E0,-1.349491787E1,-1.205480576E0,-2.563591480E0,1.378905338E1
3.228634436E0,-1.376785660E1,-1.033097982E0,-3.023278236E0,1.413369655E1
3.231142561E0,-1.301607800E1,-1.272518158E0,-2.826953650E0,1.338018146E1
3.233650686E0,-1.371997261E1,-1.181538582E0,-2.994547844E0,1.409258666E1
3.236158811E0,-1.356674385E1,-1.416170359E0,-2.759916067E0,1.391686796E1
3.238666936E0,-1.302086639E1,-1.871068597E0,-2.324171305E0,1.335835437E1
3.241175061E0,-1.363856983E1,-2.124854088E0,-2.242768526E0,1.398411966E1
3.243683186E0,-1.425148582E1,-2.843114614E0,-1.845330954E0,1.464900663E1
3.246191311E0,-1.436640739E1,-3.326743364E0,-1.428739905E0,1.481560598E1
3.248699436E0,-1.442386818E1,-3.393780947E0,-1.490989089E0,1.489257435E1
3.251207561E0,-1.410783386E1,-3.451241732E0,-1.256357312E0,1.457808216E1
3.253715686E0,-1.365772343E1,-3.341108561E0,-1.021725535E0,1.409752952E1
3.256223811E0,-1.302086639E1,-3.197456360E0,-6.578069329E-1,1.342383696E1
3.258731936E0,-1.231218243E1,-3.092111588E0,-3.082534671E-1,1.269826801E1
3.261240061E0,-1.190037918E1,-2.991554976E0,-2.603694201E-1,1.227339472E1
3.263748186E0,-1.109592819E1,-2.881421804E0,-7.362170517E-2,1.146418921E1
3.266256311E0,-1.038245583E1,-2.742558002E0,1.897404790E-1,1.074025208E1
3.268764436E0,-9.865307808E0,-2.862268209E0,1.418564469E-1,1.027312030E1
3.271272561E0,-9.525331497E0,-2.910152197E0,2.184709013E-1,9.962361943E0
3.273780686E0,-9.108740807E0,-3.096899986E0,5.967547894E-1,9.639297946E0
3.276288811E0,-8.768763542E0,-3.235763550E0,8.505401611E-1,9.385350200E0
3.278796936E0,-8.672995567E0,-3.331531763E0,1.104325533E0,9.356254105E0
3.281305061E0,-8.754398346E0,-3.604470730E0,1.128267527E0,9.534394960E0
3.283813186E0,-8.778340340E0,-3.738545895E0,1.233612418E0,9.620695615E0
3.286321311E0,-8.917203903E0,-3.743334293E0,1.616684675E0,9.805240763E0
3.288829436E0,-9.012971878E0,-3.858256102E0,1.745971560E0,9.958324101E0
3.291337561E0,-9.036913872E0,-4.155137062E0,1.587954283E0,1.007236691E1
3.293845686E0,-9.156624794E0,-3.982754469E0,1.793855667E0,1.014514805E1
3.296353811E0,-9.070432663E0,-3.939658880E0,1.927930951E0,1.007524583E1
3.298861936E0,-8.802282333E0,-4.255693436E0,1.597531080E0,9.906725314E0
3.301370061E0,-8.749609947E0,-4.092887878E0,1.803432465E0,9.826483301E0
3.303878186E0,-8.356961250E0,-4.408922195E0,1.994968534E0,9.656981708E0
3.306386311E0,-7.820659637E0,-4.648342609E0,2.038064241E0,9.323277966E0
3.308894436E0,-7.322665691E0,-4.787206173E0,1.956661344E0,8.964781056E0
3.311402561E0,-7.135918140E0,-4.456806660E0,2.186504602E0,8.692827830E0
3.313910686E0,-6.580463409E0,-4.389768600E0,1.985391736E0,8.155632863E0
3.316418811E0,-6.843825340E0,-4.270058632E0,1.841739655E0,8.274258333E0
3.318926936E0,-6.724115372E0,-4.102464676E0,1.463455796E0,8.011594524E0
3.321435061E0,-7.016208172E0,-3.542221308E0,1.674145579E0,8.035998527E0
3.323943186E0,-7.825448036E0,-3.767276287E0,1.046864748E0,8.747910230E0
3.326451311E0,-8.390480042E0,-3.551798105E0,1.267131209E0,9.198969867E0
3.328959436E0,-8.672995567E0,-3.518279314E0,1.152209520E0,9.430096936E0
3.331467561E0,-8.548497200E0,-3.791218281E0,5.345055461E-1,9.366740981E0
3.333975686E0,-8.921992302E0,-3.882198095E0,-9.277531505E-2,9.730468434E0
3.336483811E0,-8.989029884E0,-4.097676277E0,-3.465606868E-1,9.885024706E0
3.338991936E0,-8.936357498E0,-4.313154221E0,-5.333084464E-1,9.937112386E0
3.341500061E0,-8.471882820E0,-4.710591793E0,-7.823054194E-1,9.724940891E0
3.344008186E0,-7.830236435E0,-5.136759758E0,-9.068039060E-1,9.408570389E0
3.346516311E0,-7.739256859E0,-5.337872505E0,-1.131858826E0,9.469428917E0
3.349024436E0,-7.432799339E0,-5.629965305E0,-1.174954534E0,9.398060093E0
3.351532561E0,-7.284358501E0,-5.898116112E0,-1.208473325E0,9.450400003E0
3.354040686E0,-8.423998833E0,-5.778405666E0,-1.467047095E0,1.032017226E1
3.356548811E0,-9.573215485E0,-5.744886875E0,-1.280299306E0,1.123785328E1
3.359056936E0,-9.482235909E0,-6.041768074E0,-8.972271085E-1,1.127921876E1
3.361565061E0,-9.113529205E0,-6.271611214E0,-4.806360006E-1,1.107341559E1
3.364073186E0,-8.783128738E0,-6.396110058E0,-2.890998423E-1,1.086909164E1
3.366581311E0,-8.304288864E0,-6.496666431E0,-1.454477459E-1,1.054462153E1
3.369089436E0,-7.806294441E0,-6.506243229E0,-1.454477459E-1,1.016319777E1
3.371597561E0,-7.451952934E0,-6.458359241E0,-7.362170517E-2,9.861410993E0
3.374105686E0,-7.126341343E0,-6.410475254E0,1.227028370E-1,9.586135296E0
3.376613811E0,-6.997054577E0,-6.276399612E0,3.764882088E-1,9.407109451E0
3.379121936E0,-6.867767811E0,-6.137536049E0,5.919663906E-1,9.229626626E0
3.381630061E0,-6.671442986E0,-6.127959251E0,6.302735806E-1,9.080599148E0
3.384138186E0,-6.087257862E0,-6.233304024E0,1.894412041E0,8.916141784E0
3.386646363E0,-5.608417511E0,-6.204573631E0,2.923918724E0,8.860044110E0
3.389154540E0,-5.474342346E0,-6.089652061E0,2.947860956E0,8.702997792E0
3.391662717E0,-5.919663906E0,-5.864596844E0,2.186504602E0,8.614912610E0
3.394170894E0,-6.628347397E0,-5.510255337E0,1.377264500E0,8.728961026E0
3.396679071E0,-7.423222542E0,-5.079298973E0,8.026561141E-1,9.030380269E0
3.399187248E0,-8.021772385E0,-4.629189014E0,5.249287486E-1,9.276517305E0
3.401695425E0,-8.495824814E0,-4.054580688E0,4.243722558E-1,9.423309166E0
3.404203602E0,-9.113529205E0,-3.321954966E0,2.711433470E-1,9.703881599E0
3.406711779E0,-9.692925453E0,-2.455253839E0,6.045359373E-2,9.999236466E0
3.409219957E0,-1.035851383E1,-1.540668845E0,-2.124854028E-1,1.047461786E1
3.411728134E0,-1.154124928E1,-4.489128292E-1,-1.885433793E-1,1.155151532E1
3.414236311E0,-1.307353878E1,8.870517015E-1,2.184709013E-1,1.310541897E1
3.416744488E0,-1.496974659E1,2.716221809E0,9.654618502E-1,1.524477912E1
3.419252665E0,-1.630092239E1,4.674678802E0,8.792705536E-1,1.698074820E1
3.421760842E0,-1.767040634E1,7.408857346E0,2.904765129E0,1.937968235E1
3.424269019E0,-1.705270195E1,9.980229378E0,5.289390087E0,2.045427265E1
3.426777196E0,-1.458667374E1,1.063145256E1,5.322908878E0,1.881840039E1
3.429285373E0,-1.225951004E1,9.707290649E0,3.742735863E0,1.607902826E1
3.431793550E0,-8.802282333E0,8.198944092E0,1.295861721E0,1.209884772E1
3.434301727E0,-3.396175146E0,6.494272232E0,-1.581968784E0,7.497479755E0
3.436809904E0,-4.944026470E-1,4.430470467E0,-3.803787947E0,5.860230821E0
3.439318082E0,-1.557428241E0,1.930923700E0,-4.780622005E0,5.385944283E0
3.441826259E0,-3.961206675E0,-8.607155085E-1,-5.029619217E0,6.459803323E0
3.444334436E0,-5.507861137E0,-3.614047527E0,-4.953004837E0,8.241973717E0
3.446842613E0,-6.666654587E0,-5.917269707E0,-5.058349609E0,1.024915923E1
3.449350790E0,-7.566874504E0,-7.756016254E0,-5.652111530E0,1.222128237E1
3.451858967E0,-8.261193275E0,-9.111134529E0,-5.992088318E0,1.368083364E1
3.454367144E0,-8.682572365E0,-9.968258858E0,-5.853224754E0,1.445729876E1
3.456875321E0,-8.907627106E0,-1.033696556E1,-4.929062843E0,1.450842301E1
3.459383498E0,-9.084798813E0,-1.032260036E1,-3.832518339E0,1.427507774E1
3.461891675E0,-8.931569099E0,-9.929951668E0,-2.501342297E0,1.358799396E1
3.464399852E0,-8.692149162E0,-9.130288124E0,-8.924387097E-1,1.263772389E1
3.466907977E0,-8.443152428E0,-8.143877029E0,4.291606545E-1,1.173855761E1
3.469416102E0,-8.136694908E0,-7.176619530E0,1.501762986E0,1.095285186E1
3.471924227E0,-7.906851292E0,-6.204573631E0,2.301426411E0,1.031075142E1
3.474432352E0,-7.744045258E0,-5.213374138E0,3.053205729E0,9.821994302E0
3.476940477E0,-7.633912086E0,-4.408922195E0,3.460220098E0,9.470392378E0
3.479448602E0,-7.729680061E0,-3.877409697E0,4.250306606E0,9.635733810E0
3.481956727E0,-7.978677273E0,-3.274070740E0,4.719570160E0,9.831234547E0
3.484464852E0,-8.280346870E0,-2.718616009E0,5.289390087E0,1.019473711E1
3.486972977E0,-8.395268440E0,-2.278082848E0,5.160103321E0,1.011419102E1
3.489481102E0,-8.481459618E0,-2.024297476E0,4.585494995E0,9.851888239E0
3.491989227E0,-8.543708801E0,-1.880645394E0,3.723582268E0,9.507725916E0
3.494497352E0,-8.644265175E0,-1.732204914E0,2.952649355E0,9.297418593E0
3.497005477E0,-8.716091156E0,-1.698686123E0,2.320580006E0,9.178282582E0
3.499513602E0,-8.787917137E0,-1.713051319E0,1.980603337E0,9.169777642E0
3.502021727E0,-8.491036415E0,-1.866280198E0,1.669357181E0,8.852539442E0
3.504529852E0,-8.213309288E0,-2.043451071E0,1.147421122E0,8.541119187E0
3.507037977E0,-8.117541313E0,-2.163161278E0,1.046864748E0,8.465794085E0
3.509546102E0,-7.734468460E0,-2.330755472E0,9.271546006E-1,8.131053996E0
3.512054227E0,-7.590816498E0,-2.488772631E0,6.494272351E-1,8.014751403E0
3.514562352E0,-7.380126953E0,-2.656366825E0,3.477577865E-1,7.851337086E0
3.517070477E0,-7.030573368E0,-2.871845007E0,-1.071405262E-1,7.595257383E0
3.519578602E0,-6.757634163E0,-3.063380957E0,-5.716156363E-1,7.441550027E0
3.522086727E0,-6.455965042E0,-3.211821556E0,-9.546879530E-1,7.273699981E0
3.524594852E0,-6.039373875E0,-3.393780947E0,-1.332971811E0,7.054686369E0
3.527102977E0,-5.780799866E0,-3.503914118E0,-1.802235365E0,6.995935502E0
3.529611102E0,-5.579687119E0,-3.556586742E0,-2.190095901E0,6.969844880E0
3.532119227E0,-5.316324711E0,-3.614047527E0,-2.477400303E0,6.889278643E0
3.534627352E0,-5.091269970E0,-3.652354717E0,-2.697666883E0,6.821886213E0
3.537135477E0,-4.847061157E0,-3.633201122E0,-2.764704466E0,6.658659252E0
3.539643602E0,-4.712985992E0,-3.532644510E0,-2.764704466E0,6.506566298E0
3.542151727E0,-4.147954464E0,-2.953247786E0,-2.630629063E0,5.731265827E0
3.544659852E0,-3.889380693E0,-2.603694439E0,-2.300229311E0,5.215128166E0
3.547167977E0,-3.985148668E0,-2.383427858E0,-1.926733851E0,5.027369252E0
3.549676102E0,-4.229357243E0,-2.167949677E0,-1.500565886E0,4.983890696E0
3.552184227E0,-4.554968834E0,-2.024297476E0,-1.088763237E0,5.102051228E0
3.554692352E0,-4.923676014E0,-2.005143881E0,-6.817489266E-1,5.359847859E0
3.557200477E0,-5.316324711E0,-2.091335297E0,-3.178302646E-1,5.721713715E0
3.559708602E0,-5.890933514E0,-2.215833664E0,4.608838260E-2,6.294055976E0
3.562216727E0,-6.312312603E0,-2.316390038E0,9.271546006E-1,6.787530395E0
3.564724852E0,-6.704961777E0,-2.450465441E0,1.429937005E0,7.280522862E0
3.567232977E0,-7.064092159E0,-2.464830637E0,2.028487444E0,7.751873929E0
3.569741102E0,-7.298723698E0,-2.234987259E0,2.631826162E0,8.074220991E0
3.572249227E0,-7.428010941E0,-2.187103271E0,3.139396906E0,8.355511964E0
3.574757352E0,-7.451952934E0,-2.258929253E0,3.436278105E0,8.511308426E0
3.577265477E0,-7.418434143E0,-2.388216257E0,3.555988073E0,8.566317365E0
3.579773602E0,-7.380126953E0,-2.503137827E0,3.608660460E0,8.588038375E0
3.582281727E0,-7.341819286E0,-2.608482838E0,3.555988073E0,8.564551613E0
3.584789852E0,-7.322665691E0,-2.685097218E0,3.369240284E0,8.496055555E0
3.587297977E0,-7.269993305E0,-2.732981205E0,3.182492495E0,8.393464565E0
3.589806102E0,-7.231686115E0,-2.800018787E0,2.947860956E0,8.296220434E0
3.592314227E0,-7.179013729E0,-2.905363798E0,2.660556555E0,8.188891140E0
3.594822352E0,-7.092822552E0,-3.005920172E0,2.248754025E0,8.024997352E0
3.597330477E0,-6.939593792E0,-3.125630379E0,1.990180135E0,7.866914531E0
3.599838602E0,-6.690596581E0,-3.321954966E0,1.702875972E0,7.661543837E0
3.602346727E0,-6.379350662E0,-3.556586742E0,1.305438519E0,7.419541351E0
3.604854852E0,-6.044162273E0,-3.757699490E0,9.367313981E-1,7.178416870E0
3.607362977E0,-5.608417511E0,-4.006696701E0,6.254851818E-1,6.920924587E0
3.609871102E0,-5.278017521E0,-4.212597847E0,3.956418335E-1,6.764612482E0
3.612379227E0,-5.177461147E0,-4.250905037E0,3.477577865E-1,6.707997693E0
3.614887352E0,-5.249287128E0,-4.174290657E0,3.094505668E-1,6.713827336E0
3.617395477E0,-5.345055103E0,-4.169502258E0,3.333925903E-1,6.787158003E0
3.619903602E0,-5.354631901E0,-4.140771866E0,3.908534348E-1,6.780180001E0
3.622411727E0,-5.469553947E0,-4.097676277E0,3.764882088E-1,6.844612087E0
3.624919852E0,-5.503072739E0,-4.083311081E0,2.424129248E-1,6.856821638E0
3.627427977E0,-5.512649536E0,-4.145560265E0,1.466448605E-1,6.899020186E0
3.629936102E0,-5.517437935E0,-4.212597847E0,2.214636654E-2,6.941800375E0
3.632444227E0,-5.646724701E0,-4.241328239E0,-3.052607179E-2,7.062244468E0
3.634952352E0,-5.910087109E0,-4.207809448E0,-4.010287672E-2,7.255094639E0
3.637460477E0,-6.226121426E0,-4.092887878E0,-4.010287672E-2,7.451035326E0
3.639968602E0,-6.489483833E0,-3.977966070E0,-2.094926499E-2,7.611705023E0
3.642476727E0,-6.628347397E0,-3.882198095E0,4.129998013E-2,7.681676702E0
3.644984852E0,-6.652289391E0,-3.863044500E0,1.083376259E-1,7.693361033E0
3.647492977E0,-6.647500992E0,-3.896563292E0,7.781155407E-3,7.705357582E0
3.650001102E0,-6.546944618E0,-3.920505285E0,-1.550245583E-1,7.632619350E0
3.652509227E0,-6.499060631E0,-3.982754469E0,-2.364274114E-1,7.626009452E0
3.655017352E0,-6.422446251E0,-4.068945885E0,-2.843114436E-1,7.608217232E0
3.657525477E0,-6.355408192E0,-4.159925461E0,-2.986766696E-1,7.601670927E0
3.660033602E0,-6.317101002E0,-4.203021049E0,-2.220622003E-1,7.590814359E0
3.662541727E0,-6.403292656E0,-4.212597847E0,1.657984704E-1,7.666526371E0
3.665049852E0,-6.637924194E0,-4.217386246E0,4.483142793E-1,7.877142251E0
3.667557977E0,-6.752845764E0,-4.107253075E0,7.882909179E-1,7.943038229E0
3.670066102E0,-6.944382191E0,-3.997119665E0,1.061229944E0,8.082550255E0
3.672574227E0,-7.188590527E0,-4.025850296E0,7.787141204E-1,8.275850412E0
3.675082352E0,-7.322665691E0,-4.107253075E0,7.164648771E-1,8.426403893E0
3.677590477E0,-7.370550156E0,-4.212597847E0,8.888474107E-1,8.535867849E0
3.680098602E0,-7.437587738E0,-4.317942619E0,6.350619793E-1,8.623551678E0
3.682606727E0,-7.365761757E0,-4.375403404E0,6.159083843E-1,8.589408847E0
3.685114852E0,-7.341819286E0,-4.495113850E0,5.967547894E-1,8.629280111E0
3.687622977E0,-7.308300495E0,-4.624400616E0,2.950853705E-1,8.653520241E0
3.690131102E0,-7.183802128E0,-4.643554211E0,2.376245260E-1,8.557223506E0
3.692639227E0,-7.140706539E0,-4.849455357E0,7.960720360E-2,8.632105447E0
3.695147352E0,-7.135918140E0,-4.935647011E0,-5.925649032E-2,8.676718876E0
3.697655477E0,-7.183802128E0,-5.002684593E0,-1.167173311E-1,8.754855172E0
3.700163602E0,-7.116764545E0,-5.093664169E0,-1.406593472E-1,8.752915932E0
3.702671727E0,-7.159860134E0,-5.165490150E0,-1.789665818E-1,8.830510442E0
3.705179852E0,-7.313088894E0,-5.289988518E0,-2.747346461E-1,9.029990411E0
3.707687977E0,-7.384915352E0,-5.428852558E0,-3.657143116E-1,9.172958182E0
3.710196102E0,-7.337030888E0,-5.534197330E0,-4.231751561E-1,9.199915193E0
3.712704227E0,-7.169436932E0,-5.649118900E0,-4.519055784E-1,9.138795813E0
3.715212352E0,-7.135918140E0,-5.835866451E0,-6.194996834E-1,9.239179877E0
3.717720477E0,-7.121552944E0,-5.716156483E0,-9.977835417E-1,9.186214306E0
3.720228602E0,-7.116764545E0,-5.553350925E0,-1.337760210E0,9.125658687E0
3.722736727E0,-7.111976147E0,-5.390544891E0,-1.586757183E0,9.063993452E0
3.725244852E0,-7.188590527E0,-5.222950935E0,-1.845330954E0,9.075257383E0
3.727752977E0,-7.155071735E0,-5.036203384E0,-2.089539528E0,8.995808552E0
3.730261102E0,-7.097610950E0,-4.815936565E0,-2.348113298E0,8.892860185E0
3.732769227E0,-6.891709805E0,-4.576516628E0,-2.496553898E0,8.641351158E0
3.735277352E0,-6.542156219E0,-4.327519417E0,-2.515707493E0,8.237476342E0
3.737785477E0,-6.192602634E0,-4.073734283E0,-2.539649487E0,7.835397751E0
3.740293602E0,-5.957971096E0,-3.867832899E0,-2.750339270E0,7.617211892E0
3.742801727E0,-5.617994308E0,-3.657143116E0,-2.846107244E0,7.282642533E0
3.745309852E0,-5.292382717E0,-3.460818529E0,-2.812588453E0,6.920782725E0
3.747817977E0,-5.038597584E0,-3.245340347E0,-2.664147854E0,6.558763860E0
3.750326102E0,-4.832695961E0,-3.159149170E0,-2.362478495E0,6.238307332E0
3.752834227E0,-4.760869980E0,-3.044227362E0,-2.266710520E0,6.088610661E0
3.755342352E0,-4.626794815E0,-2.881421804E0,-2.065597534E0,5.828937729E0
3.757850477E0,-4.497508049E0,-2.790441990E0,-1.807023764E0,5.592806096E0
3.760358602E0,-4.411316395E0,-2.675520420E0,-1.567603588E0,5.392170515E0
3.762866727E0,-4.262876034E0,-2.584540844E0,-1.342548609E0,5.162789965E0
3.765374852E0,-4.171896458E0,-2.551021814E0,-1.088763237E0,5.009774220E0
3.767882977E0,-4.152742863E0,-2.474407434E0,-7.823054194E-1,4.896934470E0
3.770391102E0,-4.119224072E0,-2.440888643E0,-4.183867574E-1,4.806349113E0
3.772899227E0,-4.229357243E0,-2.364274263E0,7.003039867E-2,4.845839425E0
3.775407352E0,-4.349067211E0,-2.239775658E0,6.542156339E-1,4.935481608E0
3.777915477E0,-4.578910828E0,-2.206256866E0,1.458667397E0,5.287882781E0
3.780423602E0,-4.871003151E0,-2.124854088E0,1.678933978E0,5.573194407E0
3.782931779E0,-4.942829609E0,-1.904587507E0,1.650203466E0,5.548169932E0
3.785439957E0,-4.918887615E0,-1.827973008E0,1.669357181E0,5.506695387E0
3.787948134E0,-4.684255600E0,-2.254140854E0,1.611896276E0,5.442573943E0
3.790456311E0,-4.511873245E0,-2.699462414E0,1.200093627E0,5.392988246E0
3.792964488E0,-4.449624062E0,-3.005920172E0,8.936358094E-1,5.443647245E0
3.795472665E0,-4.660313606E0,-3.446453333E0,3.621230125E-1,5.807555128E0
3.797980842E0,-4.818330765E0,-3.977966070E0,6.045359373E-2,6.248534232E0
3.800489019E0,-4.622006416E0,-4.413711071E0,-3.369838893E-1,6.399792721E0
3.802997196E0,-4.502296448E0,-4.701014996E0,-6.290764809E-1,6.539568221E0
3.805505373E0,-4.373009205E0,-4.748898983E0,-8.206126094E-1,6.507584507E0
3.808013550E0,-4.248510838E0,-4.696226597E0,-1.629852772E0,6.539174921E0
3.810521727E0,-4.301183224E0,-4.504690647E0,-2.807800055E0,6.831995030E0
3.813029904E0,-4.296394825E0,-4.303577423E0,-3.526060581E0,7.029430301E0
3.815538082E0,-4.176684856E0,-4.313154221E0,-3.664924145E0,7.034178325E0
3.818046259E0,-3.860650301E0,-4.475960255E0,-2.999336243E0,6.628337563E0
3.820554436E0,-3.424905539E0,-4.557363033E0,-2.084751129E0,6.070067795E0
3.823062613E0,-3.075352192E0,-4.418499470E0,-1.294664621E0,5.536884065E0
3.825570790E0,-2.845508814E0,-4.030638695E0,-4.231751561E-1,4.951973941E0
3.828078967E0,-2.615665436E0,-3.810372114E0,3.238157928E-1,4.633087306E0
3.830587144E0,-2.304419041E0,-3.810372114E0,6.206967831E-1,4.496059081E0
3.833095321E0,-2.122459888E0,-3.891774893E0,1.013345838E0,4.547264846E0
3.835603498E0,-2.026691675E0,-4.188655853E0,1.338957310E0,4.842016489E0
3.838111675E0,-1.940500498E0,-4.566939831E0,1.281496406E0,5.124911183E0
3.840619852E0,-2.064998865E0,-4.533421040E0,9.175778031E-1,5.065380110E0
3.843128029E0,-1.988384485E0,-4.442441463E0,9.606734514E-1,4.961033410E0
3.845636207E0,-1.835155606E0,-4.466383457E0,1.027711034E0,4.936858035E0
3.848144384E0,-1.897404790E0,-4.744110584E0,1.267131209E0,5.264252243E0
3.850652561E0,-2.060210466E0,-5.117606163E0,1.405994892E0,5.693081911E0
3.853160738E0,-2.117671490E0,-5.179855347E0,1.281496406E0,5.740876848E0
3.855668915E0,-2.002749681E0,-5.323507309E0,1.520916581E0,5.887607630E0
3.858177040E0,-1.844732404E0,-5.400122166E0,1.377264500E0,5.870367497E0
3.860685165E0,-1.567005038E0,-5.491101742E0,1.195305228E0,5.834077281E0
3.863193290E0,-1.270123959E0,-5.639542103E0,1.128267527E0,5.889875857E0
3.865701415E0,-9.445125461E-1,-5.764040470E0,9.989806414E-1,5.925726016E0
3.868209540E0,-7.625532150E-1,-5.946000099E0,1.118690729E0,6.098186085E0
3.870717665E0,-6.093243361E-1,-5.974730492E0,1.128267527E0,6.110782945E0
3.873225790E0,-6.332663298E-1,-6.372167587E0,1.042076349E0,6.487793856E0
3.875733915E0,-7.529764175E-1,-7.052121162E0,1.219247222E0,7.196245560E0
3.878242040E0,-6.284779310E-1,-8.081627846E0,1.674145579E0,8.277104359E0
3.880750165E0,-7.242460251E-1,-8.962694168E0,1.382052898E0,9.097499067E0
3.883258290E0,-8.678981066E-1,-9.465476036E0,3.716998100E-1,9.512446818E0
3.885766415E0,-6.236895323E-1,-1.051892471E1,-2.747346461E-1,1.054097931E1
3.888274540E0,-5.997475386E-1,-1.243428612E1,-6.386532784E-1,1.246511317E1
3.890782665E0,-1.370680451E0,-1.378461647E1,-1.083974838E0,1.389494216E1
3.893290790E0,-1.332373261E0,-1.546055794E1,-1.739986062E0,1.561510877E1
3.895798915E0,-7.386112213E-1,-1.672469521E1,-1.553238392E0,1.681289760E1
3.898307040E0,-6.572083831E-1,-1.735197639E1,-1.241992116E0,1.740877802E1
3.900815165E0,-5.327098966E-1,-1.815163994E1,-1.414374709E0,1.821445218E1
3.903323290E0,-4.608838260E-1,-1.933916473E1,-1.625064373E0,1.941279322E1
3.905831415E0,-4.991910458E-1,-2.058414841E1,-1.510142684E0,2.064550528E1
3.908339540E0,-6.141127348E-1,-2.209728432E1,-1.179742932E0,2.213727404E1
3.910847665E0,-7.864952683E-1,-2.366309166E1,-5.237316489E-1,2.368195044E1
3.913355790E0,-7.098808289E-1,-2.497032738E1,-9.642647505E-1,2.499901971E1
3.915863915E0,-6.045359373E-1,-2.593758392E1,-1.127070427E0,2.596909724E1
3.918372040E0,-3.842693865E-1,-2.691920662E1,-8.110358119E-1,2.693416282E1
3.920880165E0,-1.017535701E-1,-2.769971657E1,-6.338648796E-1,2.770715497E1
3.923388290E0,1.376665980E-1,-2.838924599E1,-6.913257241E-1,2.839799590E1
3.925896415E0,4.668693244E-2,-2.891118240E1,-6.817489266E-1,2.891925707E1
3.928404540E0,2.047042400E-1,-2.914102554E1,-5.333084464E-1,2.914662401E1
3.930912665E0,3.483563364E-1,-2.897821999E1,-3.513490856E-1,2.898244351E1
3.933420790E0,1.903390288E-1,-2.901173973E1,-1.616086066E-2,2.901236861E1
3.935928915E0,2.190694511E-1,-2.893512535E1,1.657984704E-1,2.893642963E1
3.938437040E0,1.472434103E-1,-2.871006966E1,4.004302323E-1,2.871323954E1
3.940945165E0,1.568202078E-1,-2.842755318E1,8.026561141E-1,2.843931485E1
3.943453290E0,2.477998734E-1,-2.810194206E1,1.152209520E0,2.812664465E1
3.945961415E0,4.584896266E-1,-2.781463814E1,1.463455796E0,2.785688443E1
3.948469540E0,5.973533392E-1,-2.734537506E1,1.722029567E0,2.740605324E1
3.950977665E0,6.212953329E-1,-2.667499733E1,1.985391736E0,2.675599504E1
3.953485790E0,5.398924947E-1,-2.589448929E1,2.172139406E0,2.599104171E1
3.955993915E0,4.680664241E-1,-2.503736496E1,2.148197412E0,2.513371207E1
3.958502040E0,4.920084476E-1,-2.402701187E1,2.138620615E0,2.412701950E1
3.961010165E0,6.021417379E-1,-2.282991028E1,2.143409014E0,2.293821223E1
3.963518290E0,6.931213737E-1,-2.142211914E1,2.042852640E0,2.153046336E1
3.966026415E0,6.931213737E-1,-1.981321526E1,1.899200439E0,1.991609596E1
3.968534540E0,7.410054207E-1,-1.829529190E1,2.004545450E0,1.841969048E1
3.971042665E0,6.883329749E-1,-1.689707756E1,1.927930951E0,1.702063307E1
3.973550790E0,6.069301367E-1,-1.560420990E1,1.841739655E0,1.572424039E1
3.976058915E0,5.925649405E-1,-1.444062710E1,1.755548358E0,1.455901076E1
3.978567040E0,6.069301367E-1,-1.339675522E1,1.664568782E0,1.351340830E1
3.981075165E0,5.925649405E-1,-1.245822811E1,1.578377485E0,1.257178811E1
3.983583290E0,5.446808934E-1,-1.158673954E1,1.468244195E0,1.169208927E1
3.986091415E0,5.111620426E-1,-1.081101799E1,1.401206493E0,1.091342184E1
3.988599540E0,4.824316502E-1,-1.011191082E1,1.348534107E0,1.021283628E1
3.991107665E0,4.632780254E-1,-9.479841232E0,1.252766013E0,9.573475806E0
3.993615790E0,4.537012279E-1,-8.905233383E0,1.190516829E0,8.995907777E0
3.996123915E0,4.249708056E-1,-8.364143372E0,1.233612418E0,8.465299411E0
3.998632040E0,3.483563364E-1,-7.732074261E0,1.473032594E0,7.878841890E0
4.001140165E0,2.334346622E-1,-7.071274757E0,1.611896276E0,7.256419781E0
4.003648290E0,1.999158412E-1,-6.578069210E0,1.602319479E0,6.773358738E0
4.006156415E0,2.669534981E-1,-6.247669220E0,1.544858694E0,6.441368118E0
4.008664540E0,3.770867586E-1,-5.979518890E0,1.458667397E0,6.166405043E0
4.011172665E0,4.632780254E-1,-5.740098476E0,1.420360208E0,5.931338817E0
4.013680790E0,5.303156972E-1,-5.543774128E0,1.386841297E0,5.739163276E0
4.016188915E0,6.117185354E-1,-5.366602898E0,1.358110905E0,5.569478562E0
4.018697040E0,6.979097724E-1,-5.280411720E0,1.353322506E0,5.495571653E0
4.021205165E0,9.373299479E-1,-5.505466938E0,1.238400817E0,5.720348785E0
4.023713290E0,1.277306557E0,-5.979518890E0,1.109113932E0,6.214200827E0
4.026221415E0,1.646013618E0,-6.525396824E0,9.894038439E-1,6.802138230E0
4.028729540E0,1.904587507E0,-6.827065945E0,8.792705536E-1,7.142086508E0
4.031237665E0,2.009932280E0,-6.793547153E0,8.074445128E-1,7.130503302E0
4.033745790E0,2.076969862E0,-6.697779179E0,6.685808301E-1,7.044221040E0
4.036253915E0,2.177526474E0,-6.669048786E0,6.781576276E-1,7.048243116E0
4.038762040E0,2.249352455E0,-6.712144375E0,6.781576276E-1,7.111425057E0
4.041270165E0,2.316390038E0,-6.750451565E0,6.590040326E-1,7.167185323E0
4.043778290E0,2.369062662E0,-6.807912350E0,6.685808301E-1,7.239276814E0
4.046286415E0,2.407369852E0,-6.918045998E0,6.925228238E-1,7.357606805E0
4.048794540E0,2.426523447E0,-7.013813972E0,7.020996213E-1,7.454833758E0
4.051302665E0,2.436100245E0,-7.147889137E0,7.068880796E-1,7.584628816E0
4.053810790E0,2.421735048E0,-7.310694695E0,7.260416746E-1,7.735515114E0
4.056318915E0,2.373851061E0,-7.487865925E0,7.739257216E-1,7.893178447E0
4.058827040E0,2.335543871E0,-7.703343868E0,7.739257216E-1,8.086731908E0
4.061335165E0,2.292448044E0,-7.957129478E0,7.978677154E-1,8.319123780E0
4.063843290E0,2.234987259E0,-8.206126213E0,8.409633636E-1,8.546513608E0
4.066351415E0,2.182314873E0,-8.421604156E0,8.601169586E-1,8.742180275E0
4.068859540E0,2.057816267E0,-8.483853340E0,7.787141204E-1,8.764517726E0
4.071367665E0,1.990778685E0,-8.713697433E0,9.271546006E-1,8.986174847E0
4.073875790E0,1.962048292E0,-8.986636162E0,9.463081956E-1,9.246878512E0
4.076383915E0,1.918952703E0,-9.240421295E0,9.463081956E-1,9.484896646E0
4.078892040E0,1.871068597E0,-9.484629631E0,9.415197968E-1,9.713164081E0
4.081400165E0,1.799242616E0,-9.709685326E0,9.223662019E-1,9.917964636E0
4.083908290E0,1.717839718E0,-9.915586472E0,8.649053574E-1,1.010039057E1
4.086416415E0,1.641225219E0,-1.009275723E1,8.122329116E-1,1.025753825E1
4.088924540E0,1.454477549E0,-1.004966164E1,5.680243373E-1,1.017024363E1
4.091432665E0,1.373074651E0,-1.018852520E1,5.919663906E-1,1.029766012E1
4.093940790E0,1.353921056E0,-1.043273354E1,5.632359385E-1,1.053528671E1
4.096448915E0,1.291671872E0,-1.061469364E1,5.201402903E-1,1.070563792E1
4.098957040E0,1.205480576E0,-1.076313400E1,4.195838571E-1,1.083855560E1
4.101465165E0,1.143231273E0,-1.092593956E1,2.759317458E-1,1.098905234E1
4.103973290E0,1.023521185E0,-1.104564953E1,5.566519126E-2,1.109310902E1
4.106481415E0,9.038111567E-1,-1.115578270E1,-2.364274114E-1,1.119483185E1
4.108989540E0,8.080430627E-1,-1.124197388E1,-5.476736426E-1,1.128427475E1
4.111497665E0,5.877765417E-1,-1.103128433E1,-1.170166135E0,1.110873548E1
4.114005790E0,4.153940082E-1,-1.095945835E1,-1.428739905E0,1.105999897E1
4.116513915E0,3.387795389E-1,-1.100255394E1,-1.749562860E0,1.114593805E1
4.119022040E0,2.190694511E-1,-1.103128433E1,-2.012925148E0,1.121557369E1
4.121530165E0,1.137245819E-1,-1.105522633E1,-2.218826532E0,1.127626505E1
4.124038290E0,4.189852998E-2,-1.107437992E1,-2.415150881E0,1.133475187E1
4.126546415E0,3.591302549E-3,-1.116535950E1,-2.448669672E0,1.143071515E1
4.129054540E0,-2.992752194E-2,-1.129464626E1,-2.467823505E0,1.156114539E1
4.131562665E0,-7.302315533E-2,-1.132816505E1,-2.458246708E0,1.159205041E1
4.134070790E0,-7.302315533E-2,-1.130901146E1,-2.439092875E0,1.156928030E1
4.136578915E0,-1.113303825E-1,-1.126591587E1,-2.362478495E0,1.151149684E1
4.139087040E0,-1.879448295E-1,-1.104564953E1,-2.477400303E0,1.132162572E1
4.141595165E0,-1.975216419E-1,-1.057159805E1,-2.510919094E0,1.086749350E1
4.144103290E0,-1.783680320E-1,-1.033696556E1,-2.372055292E0,1.060713526E1
4.146611415E0,-2.645592988E-1,-1.015500641E1,-2.228403330E0,1.039999655E1
4.149119540E0,-3.124433160E-1,-1.012148762E1,-2.051232338E0,1.033197399E1
4.151627665E0,-3.411737382E-1,-1.011669922E1,-1.888426542E0,1.029709461E1
4.154135790E0,-3.651157618E-1,-1.007360363E1,-1.672948480E0,1.021809944E1
4.156643915E0,-3.746925592E-1,-1.002093124E1,-1.534084797E0,1.014459825E1
4.159152040E0,-3.220201433E-1,-9.968258858E0,-1.337760210E0,1.006277715E1
4.161660165E0,-3.411737382E-1,-9.882067680E0,-1.155800819E0,9.955276827E0
4.164168290E0,-3.794809580E-1,-9.896432877E0,-9.403226972E-1,9.948245888E0
4.166676415E0,-3.986345828E-1,-9.939528465E0,-7.679402232E-1,9.977117210E0
4.169184540E0,-4.129997790E-1,-9.944316864E0,-5.716156363E-1,9.969290403E0
4.171692665E0,-3.938461840E-1,-9.958682060E0,-3.896563351E-1,9.974081173E0
4.174200790E0,-3.651157618E-1,-9.934740067E0,-2.843114436E-1,9.945511686E0
4.176708915E0,-2.693476975E-1,-9.843760490E0,-9.277531505E-2,9.847881804E0
4.179217040E0,-2.980781198E-1,-1.001614285E1,3.142389655E-1,1.002550319E1
4.181725165E0,-2.741360962E-1,-1.031781197E1,5.105634928E-1,1.033407323E1
4.184233290E0,-2.070984542E-1,-1.048061752E1,7.499836683E-1,1.050945807E1
4.186741415E0,-1.735796183E-1,-1.057638645E1,9.510966539E-1,1.062048328E1
4.189249540E0,-1.592144072E-1,-1.061948204E1,1.104325533E0,1.067793439E1
4.191757665E0,-1.496376097E-1,-1.064821243E1,1.262342811E0,1.072382063E1
4.194265790E0,-1.927332431E-1,-1.052850151E1,1.204882026E0,1.059897310E1
4.196773915E0,-1.927332431E-1,-1.011669922E1,1.200093627E0,1.018945405E1
4.199282040E0,-2.932897210E-1,-1.014542961E1,1.401206493E0,1.024593288E1
4.201790165E0,-4.129997790E-1,-1.029386997E1,1.492186189E0,1.040965645E1
