"Time (s)","Acceleration x (m/s^2)","Acceleration y (m/s^2)","Acceleration z (m/s^2)","Absolute acceleration (m/s^2)"
2.467964900E-2,-2.127248287E0,4.837484360E0,8.349180222E0,9.881055135E0
2.718256600E-2,-2.069787264E0,4.794388771E0,8.401852608E0,9.892487566E0
2.968725400E-2,-2.021903276E0,4.756081581E0,8.411429405E0,9.872210973E0
3.219392000E-2,-1.983596087E0,4.712985992E0,8.425794601E0,9.856008577E0
3.470272200E-2,-1.940500498E0,4.669890404E0,8.435371399E0,9.835085623E0
3.721376400E-2,-1.902193308E0,4.631583214E0,8.449736595E0,9.821809964E0
3.972699300E-2,-1.883039594E0,4.593276024E0,8.449736595E0,9.800105676E0
4.224230600E-2,-1.863885999E0,4.578910828E0,8.478466988E0,9.814524840E0
4.475954500E-2,-1.849520802E0,4.535815239E0,8.473678589E0,9.787623609E0
4.727845100E-2,-1.863885999E0,4.511873245E0,8.483255386E0,9.787578513E0
4.979866000E-2,-1.849520802E0,4.473566055E0,8.483255386E0,9.767248456E0
5.231985800E-2,-1.863885999E0,4.444835663E0,8.468890190E0,9.744369458E0
5.484168100E-2,-1.854309201E0,4.420893669E0,8.464101791E0,9.727475653E0
5.736371200E-2,-1.844732404E0,4.406527996E0,8.473678589E0,9.727474258E0
5.988241000E-2,-1.830367208E0,4.377797604E0,8.435371399E0,9.678370039E0
6.239501400E-2,-1.844732404E0,4.363432407E0,8.425794601E0,9.666260636E0
6.490761800E-2,-1.844732404E0,4.358644009E0,8.425794601E0,9.664100056E0
6.742022200E-2,-1.892616391E0,4.282029629E0,8.377910614E0,9.597247564E0
6.993287900E-2,-1.873462796E0,4.329913616E0,8.358757019E0,9.598272432E0
7.244558700E-2,-1.787271619E0,4.392162800E0,8.377910614E0,9.626776208E0
7.495839900E-2,-1.792060018E0,4.425682068E0,8.368333817E0,9.634684828E0
7.747131600E-2,-1.835155606E0,4.454412460E0,8.392275810E0,9.676770109E0
7.998438900E-2,-1.859097600E0,4.492719650E0,8.406641006E0,9.711456469E0
8.249761800E-2,-1.873462796E0,4.540603638E0,8.353968620E0,9.691013154E0
8.501100400E-2,-1.935712099E0,4.535815239E0,8.215105057E0,9.581677948E0
8.752454500E-2,-1.945288897E0,4.574122429E0,8.138489723E0,9.536338913E0
9.003819100E-2,-1.911770105E0,4.602852821E0,8.181585312E0,9.580159563E0
9.255194100E-2,-1.873462796E0,4.554968834E0,8.157643318E0,9.529152556E0
9.506579500E-2,-1.892616391E0,4.502296448E0,8.128912926E0,9.483242877E0
9.757970100E-2,-1.916558504E0,4.535815239E0,8.143278122E0,9.516291029E0
1.000936600E-1,-1.926135302E0,4.598064423E0,8.229470253E0,9.621661721E0
1.026076180E-1,-2.055422068E0,4.626794815E0,8.239047050E0,9.670257827E0
1.051215760E-1,-2.088941097E0,4.641160011E0,8.258200645E0,9.700614365E0
1.076355350E-1,-2.007538080E0,4.665102005E0,8.195950508E0,9.641939151E0
1.101489200E-1,-1.930923700E0,4.617218018E0,8.162431717E0,9.574573625E0
1.126623060E-1,-1.878251195E0,4.593276024E0,8.210315704E0,9.593502809E0
1.151755870E-1,-1.859097600E0,4.473566055E0,8.229470253E0,9.549514008E0
1.176888160E-1,-1.940500498E0,4.320336819E0,8.248623848E0,9.511605952E0
1.202020450E-1,-2.031480074E0,4.243722439E0,8.239047050E0,9.487780970E0
1.227152740E-1,-1.950077295E0,4.339490414E0,8.301296234E0,9.567941141E0
1.252283990E-1,-1.868674397E0,4.430470467E0,8.349180222E0,9.634823451E0
1.277414720E-1,-1.820790410E0,4.411316395E0,8.387487411E0,9.650126172E0
1.302545450E-1,-1.897404790E0,4.258087635E0,8.421006203E0,9.625216918E0
1.327676180E-1,-1.926135302E0,4.195838451E0,8.411429405E0,9.595165561E0
1.352806910E-1,-1.897404790E0,4.277241230E0,8.444948196E0,9.654640724E0
1.377938160E-1,-1.902193308E0,4.349067211E0,8.425794601E0,9.670922379E0
1.403069930E-1,-1.988384485E0,4.291606426E0,8.330026627E0,9.579191103E0
1.428202220E-1,-2.199074268E0,4.200626850E0,8.291719437E0,9.551638854E0
1.453335040E-1,-2.199074268E0,4.258087635E0,8.272565842E0,9.560469839E0
1.478468370E-1,-2.098517895E0,4.267664433E0,8.229470253E0,9.504783938E0
1.503602220E-1,-2.017114878E0,4.210203648E0,8.181585312E0,9.419814510E0
1.528736600E-1,-1.926135302E0,4.133589268E0,8.128912926E0,9.320717933E0
1.553870970E-1,-1.839944005E0,4.109647274E0,8.138489723E0,9.301054222E0
1.579005350E-1,-1.744175911E0,4.147954464E0,8.186373711E0,9.341541113E0
1.604139720E-1,-1.681926727E0,4.219780445E0,8.234258652E0,9.404171418E0
1.629266810E-1,-1.667561531E0,4.286818027E0,8.262989044E0,9.456984625E0
1.654393890E-1,-1.681926727E0,4.310760021E0,8.330026627E0,9.528949212E0
1.679520970E-1,-1.686715126E0,4.349067211E0,8.449736595E0,9.651810299E0
1.704648060E-1,-1.686715126E0,4.396951199E0,8.545504570E0,9.757245314E0
1.729775140E-1,-1.686715126E0,4.420893669E0,8.612542152E0,9.826758930E0
1.754902740E-1,-1.653196216E0,4.349067211E0,8.574234962E0,9.755252356E0
1.780030870E-1,-1.595735431E0,4.339490414E0,8.564658165E0,9.732980946E0
1.805159510E-1,-1.528697729E0,4.411316395E0,8.579023361E0,9.767101459E0
1.830288680E-1,-1.495178938E0,4.440047264E0,8.531139374E0,9.732929609E0
1.855418370E-1,-1.485602140E0,4.507084846E0,8.507197380E0,9.741315866E0
1.880548580E-1,-1.485602140E0,4.588487625E0,8.464101791E0,9.741778664E0
1.905679830E-1,-1.499967337E0,4.636371613E0,8.454524994E0,9.758321403E0
1.930812120E-1,-1.514332533E0,4.684255600E0,8.449736595E0,9.779238318E0
1.955945970E-1,-1.499967337E0,4.727351189E0,8.430583000E0,9.781231057E0
1.981081390E-1,-1.490390539E0,4.746504784E0,8.401852608E0,9.764307393E0
2.006218370E-1,-1.466448545E0,4.765658379E0,8.411429405E0,9.778247070E0
2.031356910E-1,-1.428141356E0,4.794388771E0,8.401852608E0,9.778388347E0
2.056497010E-1,-1.356315255E0,4.765658379E0,8.421006203E0,9.770590377E0
2.081638680E-1,-1.294066072E0,4.741716385E0,8.373122215E0,9.709153254E0
2.106781390E-1,-1.241393566E0,4.722562790E0,8.387487411E0,9.705338859E0
2.131924620E-1,-1.198297977E0,4.660313606E0,8.377910614E0,9.661460925E0
2.157067850E-1,-1.155202270E0,4.631583214E0,8.416217804E0,9.675679691E0
2.182206910E-1,-1.107318282E0,4.607641220E0,8.430583000E0,9.671155108E0
2.207336600E-1,-1.078587890E0,4.550180435E0,8.449736595E0,9.657408677E0
2.232465760E-1,-1.073799491E0,4.487931252E0,8.521562576E0,9.690799813E0
2.257594410E-1,-1.059434295E0,4.425682068E0,8.511985779E0,9.652096388E0
2.282721490E-1,-1.040280581E0,4.377797604E0,8.574234962E0,9.683222642E0
2.307848580E-1,-1.011550188E0,4.344278812E0,8.646060944E0,9.728841762E0
2.332973060E-1,-1.030703783E0,4.267664433E0,8.636484146E0,9.688352203E0
2.358097540E-1,-1.088164687E0,4.219780445E0,8.670002937E0,9.703586982E0
2.383222010E-1,-1.097741485E0,4.186261654E0,8.765770912E0,9.775917486E0
2.408346490E-1,-1.107318282E0,4.167108059E0,8.751405716E0,9.755923604E0
2.433470970E-1,-1.112106681E0,4.133589268E0,8.650849342E0,9.651970568E0
2.458595970E-1,-1.136048675E0,4.133589268E0,8.679579735E0,9.680509863E0
2.483721490E-1,-1.155202270E0,4.143166065E0,8.703521729E0,9.708326725E0
2.508848060E-1,-1.136048675E0,4.143166065E0,8.693944931E0,9.697479575E0
2.533976180E-1,-1.097741485E0,3.980360270E0,8.564658165E0,9.507979476E0
2.559106390E-1,-1.054645896E0,3.721786499E0,8.540716171E0,9.375916245E0
2.584238680E-1,-1.083376288E0,3.654748917E0,8.631695747E0,9.435945385E0
2.609373580E-1,-1.145625472E0,3.659537315E0,8.689156532E0,9.497689842E0
2.634511080E-1,-1.193509579E0,3.669114113E0,8.765770912E0,9.577348442E0
2.659650660E-1,-1.241393566E0,3.712209702E0,8.851962090E0,9.678780486E0
2.684792330E-1,-1.294066072E0,3.779247284E0,8.947730064E0,9.798938225E0
2.709936080E-1,-1.375468850E0,3.836708307E0,9.019556046E0,9.897708647E0
2.735081390E-1,-1.442506552E0,3.913322687E0,9.086593628E0,9.998054979E0
2.760227740E-1,-1.471236944E0,3.970783472E0,9.144054413E0,1.007697329E1
2.785374620E-1,-1.543063045E0,4.013879299E0,9.177573204E0,1.013509351E1
2.810521490E-1,-1.600523829E0,4.076128483E0,9.201516151E0,1.019040723E1
2.835668370E-1,-1.629254222E0,4.124012470E0,9.182361603E0,1.019694625E1
2.860805870E-1,-1.677138329E0,4.147954464E0,9.086593628E0,1.012840081E1
2.885942330E-1,-1.696291924E0,4.147954464E0,9.033921242E0,1.008437730E1
2.911078790E-1,-1.715445518E0,4.138377666E0,8.981248856E0,1.003652101E1
2.936215240E-1,-1.725022316E0,4.133589268E0,8.880692482E0,9.946303896E0
2.961351700E-1,-1.725022316E0,4.124012470E0,8.765770912E0,9.839813033E0
2.986488160E-1,-1.710657120E0,4.104858875E0,8.674791336E0,9.748241836E0
3.011624620E-1,-1.634042621E0,4.009090900E0,8.545504570E0,9.579590466E0
3.036761080E-1,-1.538274646E0,3.985148668E0,8.435371399E0,9.455325982E0
3.061897540E-1,-1.499967337E0,4.037821293E0,8.291719437E0,9.343795483E0
3.087033990E-1,-1.437718153E0,4.109647274E0,8.176796913E0,9.263705628E0
3.112170450E-1,-1.389834046E0,4.210203648E0,8.033144951E0,9.175449375E0
3.137307430E-1,-1.341950059E0,4.349067211E0,7.879916191E0,9.099906304E0
3.162444930E-1,-1.308431268E0,4.483142853E0,7.812878609E0,9.102287316E0
3.187582950E-1,-1.294066072E0,4.655525208E0,7.788936615E0,9.166027250E0
3.212721490E-1,-1.274912357E0,4.775235176E0,7.793725014E0,9.228782265E0
3.237860560E-1,-1.250970364E0,4.871003151E0,7.903858185E0,9.368168057E0
3.263000140E-1,-1.236605167E0,4.942829609E0,8.095394135E0,9.565362674E0
3.288139720E-1,-1.227028370E0,5.038597584E0,8.363545418E0,9.840831072E0
3.313279310E-1,-1.207874775E0,5.124788761E0,8.641272545E0,1.011899266E1
3.338418890E-1,-1.188721180E0,5.139153957E0,8.928576469E0,1.037031529E1
3.363558470E-1,-1.145625472E0,5.072116375E0,9.153631210E0,1.052747769E1
3.388698060E-1,-1.116895080E0,4.909310818E0,9.287707329E0,1.056457736E1
3.413837640E-1,-1.069011092E0,4.708197594E0,9.369110107E0,1.053993043E1
3.438975660E-1,-1.016338587E0,4.497508049E0,9.369110107E0,1.044225775E1
3.464113160E-1,-1.011550188E0,4.334702015E0,9.302072525E0,1.031219805E1
3.489250660E-1,-1.069011092E0,4.258087635E0,9.220669746E0,1.021248479E1
3.514387120E-1,-1.150413871E0,4.258087635E0,9.124900818E0,1.013501738E1
3.539523580E-1,-1.198297977E0,4.262876034E0,9.019556046E0,1.004790632E1
3.564660040E-1,-1.241393566E0,4.262876034E0,8.923788071E0,9.967304731E0
3.589796490E-1,-1.265335560E0,4.224568844E0,8.856750488E0,9.893941844E0
3.614932950E-1,-1.265335560E0,4.157531261E0,8.823231697E0,9.835423623E0
3.640069410E-1,-1.250970364E0,4.085705280E0,8.808866501E0,9.790507827E0
3.665206390E-1,-1.255758762E0,4.004302502E0,8.823231697E0,9.770403583E0
3.690343890E-1,-1.227028370E0,3.932476282E0,8.818443298E0,9.733186042E0
3.715481390E-1,-1.198297977E0,3.884592295E0,8.828020096E0,9.719049035E0
3.740618890E-1,-1.183932781E0,3.865438700E0,8.851962090E0,9.731420554E0
3.765756390E-1,-1.169567585E0,3.855861902E0,8.847173691E0,9.721524657E0
3.790893890E-1,-1.159990668E0,3.879803896E0,8.871115685E0,9.751674221E0
3.816031390E-1,-1.126471877E0,3.884592295E0,8.851962090E0,9.732226314E0
3.841168890E-1,-1.092953086E0,3.879803896E0,8.828020096E0,9.704708318E0
3.866306390E-1,-1.049857497E0,3.908534288E0,8.818443298E0,9.702771937E0
3.891443890E-1,-9.828197956E-1,3.942053080E0,8.828020096E0,9.718006794E0
3.916581390E-1,-9.109937549E-1,3.965995073E0,8.899846077E0,9.786025073E0
3.941718890E-1,-7.960720658E-1,3.989937067E0,8.942941666E0,9.824944487E0
3.966852220E-1,-6.859387755E-1,4.037821293E0,9.014767647E0,9.901542734E0
3.991985560E-1,-6.189011335E-1,4.080916882E0,9.057863235E0,9.953984509E0
4.017118890E-1,-5.422866940E-1,4.162319660E0,9.091382027E0,1.001360110E1
4.042252220E-1,-4.752490520E-1,4.195838451E0,9.100958824E0,1.003286467E1
4.067385560E-1,-3.746925592E-1,4.171896458E0,9.081805229E0,1.000121497E1
4.092518890E-1,-3.076549172E-1,4.162319660E0,9.067440033E0,9.981884855E0
4.117652220E-1,-2.549824715E-1,4.104858875E0,9.005190849E0,9.899916398E0
4.142785560E-1,-2.166752517E-1,4.013879299E0,8.890269279E0,9.756795737E0
4.167918890E-1,-1.783680320E-1,3.961206675E0,8.756194115E0,9.612175032E0
4.193052220E-1,-1.304839998E-1,3.875015497E0,8.660426140E0,9.488717095E0
4.218185560E-1,-7.781155407E-2,3.812766314E0,8.550292969E0,9.362198003E0
4.243318890E-1,-3.471592441E-2,3.755305290E0,8.425794601E0,9.224832664E0
4.268452220E-1,-2.035071515E-2,3.721786499E0,8.301296234E0,9.097451735E0
4.293585560E-1,-2.035071515E-2,3.702632904E0,8.172008514E0,8.971712642E0
4.318718890E-1,2.274491638E-2,3.688267708E0,8.057086945E0,8.861178593E0
4.343852220E-1,1.328781992E-1,3.544615507E0,7.908646584E0,8.667678264E0
4.368985560E-1,3.004723191E-1,3.238157749E0,7.736264229E0,8.392004137E0
4.394118890E-1,3.339911401E-1,3.147178173E0,7.606977463E0,8.239076808E0
4.419252220E-1,3.962403834E-1,3.075352192E0,7.386710644E0,8.011135480E0
4.444386080E-1,4.537012279E-1,3.027467966E0,7.223905087E0,7.845776685E0
4.469520450E-1,4.776432514E-1,2.946065187E0,7.132925510E0,7.732145207E0
4.494655350E-1,5.111620426E-1,2.831143618E0,6.979696274E0,7.549358972E0
4.519790760E-1,4.872200489E-1,2.855085611E0,7.022792339E0,7.596611710E0
4.544926180E-1,4.441244006E-1,2.907757998E0,7.142502308E0,7.724483301E0
4.570062120E-1,4.058171809E-1,2.989160776E0,7.286154270E0,7.885925043E0
4.595198580E-1,3.531447649E-1,3.037044764E0,7.381922245E0,7.990064340E0
4.620335040E-1,3.004723191E-1,3.080140591E0,7.506421089E0,8.119353868E0
4.645471490E-1,2.477998734E-1,3.118447781E0,7.669226646E0,8.282702379E0
4.670607950E-1,2.142810524E-1,3.142389774E0,7.879916191E0,8.486083257E0
4.695744930E-1,1.999158412E-1,3.223792553E0,8.143278122E0,8.760467073E0
4.720882430E-1,1.759738177E-1,3.281253338E0,8.349180222E0,8.972535908E0
4.746019930E-1,1.759738177E-1,3.348291159E0,8.535927773E0,9.170827847E0
4.771157950E-1,1.328781992E-1,3.381809950E0,8.689156532E0,9.325005973E0
4.796295970E-1,1.185129806E-1,3.405751944E0,8.813654900E0,9.449534608E0
4.821433990E-1,1.185129806E-1,3.429693937E0,8.904634476E0,9.543026825E0
4.846572010E-1,1.280897856E-1,3.463212729E0,8.966883659E0,9.613285180E0
4.871710040E-1,1.616086215E-1,3.501519918E0,9.048286438E0,9.703517226E0
4.896848060E-1,1.951274425E-1,3.530250311E0,9.120112419E0,9.781471899E0
4.921986080E-1,2.525882721E-1,3.597288132E0,9.191938400E0,9.874007003E0
4.947124100E-1,3.483563364E-1,3.649960518E0,9.321226120E0,1.001642752E1
4.972262120E-1,5.542576909E-1,3.760093689E0,9.464878082E0,1.019948152E1
4.997400140E-1,6.979097724E-1,3.807977915E0,9.536704063E0,1.029254576E1
5.022538160E-1,6.500257850E-1,3.822343111E0,9.450512886E0,1.021494171E1
5.047673060E-1,6.212953329E-1,3.851073503E0,9.426570892E0,1.020181424E1
5.072802220E-1,5.542576909E-1,3.846285105E0,9.302072525E0,1.008115390E1
5.097930870E-1,4.489128292E-1,3.841496706E0,9.148842812E0,9.932771238E0
5.123059510E-1,3.100491166E-1,3.807977915E0,8.981248856E0,9.760105392E0
5.148188680E-1,1.520318091E-1,3.798400879E0,8.851962090E0,9.633701041E0
5.173318370E-1,3.232172132E-2,3.769670486E0,8.741828918E0,9.520033251E0
5.198449100E-1,-6.823474914E-2,3.740940094E0,8.674791336E0,9.447290272E0
5.223580870E-1,-1.592144072E-1,3.712209702E0,8.588600159E0,9.357879182E0
5.248713680E-1,-2.454056740E-1,3.697844505E0,8.502408981E0,9.274979052E0
5.273847540E-1,-3.028665185E-1,3.659537315E0,8.425794601E0,9.191189050E0
5.298982950E-1,-3.459621370E-1,3.649960518E0,8.353968620E0,9.123085733E0
5.324119930E-1,-4.560954273E-1,3.702632904E0,8.296507835E0,9.096678280E0
5.349257950E-1,-7.290344238E-1,3.961206675E0,8.296507835E0,9.222510058E0
5.374397010E-1,-8.774749041E-1,4.124012470E0,8.277354240E0,9.289350585E0
5.399536600E-1,-9.062053561E-1,4.205415249E0,8.310873032E0,9.358276343E0
5.424676700E-1,-9.253589511E-1,4.286818027E0,8.373122215E0,9.452104190E0
5.449817330E-1,-9.253589511E-1,4.349067211E0,8.411429405E0,9.514348082E0
5.474957950E-1,-9.205705523E-1,4.392162800E0,8.459313393E0,9.575934799E0
5.500098580E-1,-8.774749041E-1,4.416105270E0,8.483255386E0,9.604039250E0
5.525235040E-1,-8.104372621E-1,4.406527996E0,8.454524994E0,9.568348364E0
5.550371490E-1,-7.721300721E-1,4.454412460E0,8.473678589E0,9.604228446E0
5.575506910E-1,-7.098808289E-1,4.440047264E0,8.430583000E0,9.554720311E0
5.600641810E-1,-6.428431273E-1,4.382586002E0,8.353968620E0,9.455638480E0
5.625776700E-1,-5.422866940E-1,4.363432407E0,8.306084633E0,9.398119980E0
5.650911600E-1,-4.417302012E-1,4.272452831E0,8.205527306E0,9.261730785E0
5.676042850E-1,-3.938461840E-1,4.214992046E0,8.071452141E0,9.114253257E0
5.701174100E-1,-3.315969408E-1,4.114435673E0,7.932588577E0,8.942287122E0
5.726305350E-1,-2.741360962E-1,4.004302502E0,7.808090210E0,8.779285953E0
5.751436600E-1,-2.406172752E-1,3.932476282E0,7.788936615E0,8.728676874E0
5.776567850E-1,-1.879448295E-1,3.846285105E0,7.808090210E0,8.706061400E0
5.801699620E-1,-2.023100406E-1,3.774458885E0,7.846397400E0,8.709386970E0
5.826831910E-1,-2.214636505E-1,3.736151695E0,7.923011780E0,8.762533384E0
5.851964720E-1,-2.693476975E-1,3.602076530E0,7.980473042E0,8.759877481E0
5.877098580E-1,-4.177882075E-1,3.314772367E0,8.004414558E0,8.673690982E0
5.902233470E-1,-4.752490520E-1,3.132812977E0,8.114547729E0,8.711272218E0
5.927369410E-1,-4.848258495E-1,3.060986757E0,8.253412247E0,8.816093792E0
5.952506390E-1,-5.135562420E-1,2.979583979E0,8.368333817E0,8.897790263E0
5.977644410E-1,-5.710170865E-1,2.902969599E0,8.516774178E0,9.016026586E0
6.002783470E-1,-6.524199843E-1,2.845508814E0,8.655637741E0,9.134694136E0
6.027923060E-1,-7.386112213E-1,2.802412987E0,8.770559311E0,9.236978711E0
6.053063160E-1,-8.200140595E-1,2.778470993E0,8.875904083E0,9.336701635E0
6.078203260E-1,-8.583213091E-1,2.725798607E0,8.952518463E0,9.397567789E0
6.103343370E-1,-8.774749041E-1,2.706645012E0,9.009979248E0,9.448577431E0
6.128483470E-1,-8.870517015E-1,2.692279816E0,9.062651634E0,9.495624570E0
6.153623060E-1,-8.439561129E-1,2.682703018E0,9.120112419E0,9.543878035E0
6.178756390E-1,-8.535329103E-1,2.725798607E0,9.158419609E0,9.593494995E0
6.203889720E-1,-8.248024583E-1,2.735375404E0,9.187150002E0,9.621138334E0
6.229023060E-1,-7.386112213E-1,2.725798607E0,9.167996407E0,9.593105998E0
6.254156390E-1,-6.572083831E-1,2.706645012E0,9.134477615E0,9.549687502E0
6.279289720E-1,-5.566518903E-1,2.740163803E0,9.100958824E0,9.520809341E0
6.304423060E-1,-4.704606235E-1,2.740163803E0,9.057863235E0,9.474952098E0
6.329556390E-1,-3.746925592E-1,2.764105797E0,9.005190849E0,9.427308078E0
6.354689720E-1,-2.549824715E-1,2.788047791E0,8.928576469E0,9.357227384E0
6.379823060E-1,-1.640028208E-1,2.850297213E0,8.866327286E0,9.314657839E0
6.404956390E-1,-2.035071515E-2,2.869450808E0,8.851962090E0,9.305449743E0
6.430089720E-1,8.978256583E-2,2.922123194E0,8.837596893E0,9.308597301E0
6.455223060E-1,1.759738177E-1,3.017891169E0,8.871115685E0,9.372050329E0
6.480356390E-1,3.339911401E-1,2.960430384E0,8.861538887E0,9.348934142E0
6.505489720E-1,4.441244006E-1,2.907757998E0,8.904634476E0,9.377889859E0
6.530623060E-1,4.920084476E-1,2.931699991E0,8.971672058E0,9.451340469E0
6.555756390E-1,5.446808934E-1,2.941276789E0,9.014767647E0,9.498095712E0
6.580888160E-1,5.877765417E-1,2.936488390E0,9.057863235E0,9.540090761E0
6.606018370E-1,6.165069342E-1,2.941276789E0,9.081805229E0,9.566105590E0
6.631148580E-1,6.165069342E-1,2.936488390E0,9.110535622E0,9.591918691E0
6.656278790E-1,6.212953329E-1,2.922123194E0,9.191938400E0,9.665223402E0
6.681408990E-1,5.973533392E-1,2.883816004E0,9.239823341E0,9.697812183E0
6.706539200E-1,5.542576909E-1,2.869450808E0,9.282918930E0,9.732087823E0
6.731669410E-1,5.159504414E-1,2.835932016E0,9.349956512E0,9.784191435E0
6.756799620E-1,4.776432514E-1,2.816778183E0,9.416994095E0,9.840841437E0
6.781929830E-1,4.249708056E-1,2.797624588E0,9.469666481E0,9.883414733E0
6.807060560E-1,3.483563364E-1,2.792836189E0,9.560646057E0,9.966305190E0
6.832191810E-1,3.148375154E-1,2.788047791E0,9.584588051E0,9.986824383E0
6.857323580E-1,3.196259141E-1,2.802412987E0,9.598953247E0,1.000477799E1
6.882455870E-1,3.100491166E-1,2.802412987E0,9.603741646E0,1.000907102E1
6.907588680E-1,2.956839204E-1,2.811989784E0,9.584588051E0,9.992949696E0
6.932722010E-1,3.292027414E-1,2.840720415E0,9.541492462E0,9.960830554E0
6.957856390E-1,3.483563364E-1,2.864662409E0,9.575011253E0,1.000042416E1
6.982991810E-1,3.866635859E-1,2.869450808E0,9.536704063E0,9.966543085E0
7.008128260E-1,4.058171809E-1,2.902969599E0,9.488820076E0,9.931244963E0
7.033265760E-1,4.632780254E-1,2.950853586E0,9.522338867E0,9.979834714E0
7.058404310E-1,4.824316502E-1,2.931699991E0,9.527127266E0,9.979667283E0
7.083543370E-1,4.872200489E-1,2.879027605E0,9.469666481E0,9.909629993E0
7.108682430E-1,5.159504414E-1,2.845508814E0,9.440936089E0,9.873925232E0
7.133821490E-1,5.207388401E-1,2.855085611E0,9.464878082E0,9.899828276E0
7.158960560E-1,4.920084476E-1,2.855085611E0,9.455301285E0,9.889201613E0
7.184099620E-1,4.872200489E-1,2.831143618E0,9.407417297E0,9.836272555E0
7.209234510E-1,5.255272985E-1,2.835932016E0,9.378686905E0,9.812158652E0
7.234362120E-1,5.351040959E-1,2.855085611E0,9.397840500E0,9.836526638E0
7.259489720E-1,4.920084476E-1,2.859874010E0,9.383475304E0,9.821942804E0
7.284617330E-1,4.441244006E-1,2.874239206E0,9.388263702E0,9.828427791E0
7.309744930E-1,4.393360019E-1,2.888604403E0,9.440936089E0,9.882728659E0
7.334872540E-1,4.393360019E-1,2.917334795E0,9.517550468E0,9.964317606E0
7.360000140E-1,4.201824069E-1,2.946065187E0,9.608530045E0,1.005881220E1
7.385127740E-1,3.866635859E-1,3.003525972E0,9.704298019E0,1.016582889E1
7.410255870E-1,3.579331636E-1,3.060986757E0,9.785700798E0,1.025951735E1
7.435384510E-1,3.292027414E-1,3.108870983E0,9.843161583E0,1.032769496E1
7.460513680E-1,3.148375154E-1,3.185485363E0,9.910199165E0,1.041434046E1
7.485643370E-1,3.435679376E-1,3.309983969E0,9.958083153E0,1.049940250E1
7.510773580E-1,4.010287821E-1,3.434482336E0,1.002512074E1,1.060469418E1
7.535903790E-1,4.441244006E-1,3.520673513E0,1.009694672E1,1.070236990E1
7.561034510E-1,4.728548229E-1,3.582922935E0,1.017835045E1,1.080091414E1
7.586165760E-1,4.584896266E-1,3.626018524E0,1.025496483E1,1.088680517E1
7.611297540E-1,4.345476031E-1,3.688267708E0,1.029327202E1,1.094274185E1
7.636429830E-1,3.579331636E-1,3.740940094E0,1.033636761E1,1.099832916E1
7.661562640E-1,2.525882721E-1,3.784035683E0,1.032679081E1,1.100115154E1
7.686695970E-1,1.089361757E-1,3.793612480E0,1.028848362E1,1.096614143E1
7.711829830E-1,1.795651205E-2,3.693056107E0,1.019750404E1,1.084564772E1
7.736964200E-1,-1.556231081E-2,3.515885115E0,1.011610031E1,1.070967674E1
7.762098580E-1,-2.992752194E-2,3.309983969E0,1.007779312E1,1.060748810E1
7.787232950E-1,-4.908113554E-2,3.104082584E0,1.004427433E1,1.051309586E1
7.812367330E-1,-3.471592441E-2,2.907757998E0,9.924564362E0,1.034181993E1
7.837501700E-1,-2.992752194E-2,2.749740601E0,9.833584785E0,1.021084515E1
7.862636080E-1,-1.556231081E-2,2.644395828E0,9.742605209E0,1.009511901E1
7.887767330E-1,1.316810958E-2,2.567781210E0,9.689932823E0,1.002439384E1
7.912894930E-1,3.711012751E-2,2.539050817E0,9.656414032E0,9.984712724E0
7.938020970E-1,6.584054977E-2,2.562992811E0,9.637260437E0,9.972464884E0
7.963147010E-1,1.233013868E-1,2.596511841E0,9.651625633E0,9.995546725E0
7.988273060E-1,1.711854190E-1,2.610877037E0,9.637260437E0,9.986128984E0
8.013399100E-1,2.190694511E-1,2.649184227E0,9.627683640E0,9.987915736E0
8.038525140E-1,2.861070931E-1,2.673126221E0,9.622895241E0,9.991374974E0
8.063651700E-1,3.483563364E-1,2.706645012E0,9.613318443E0,9.993156201E0
8.088778790E-1,4.010287821E-1,2.716221809E0,9.584588051E0,9.970105973E0
8.113906390E-1,4.632780254E-1,2.716221809E0,9.565434456E0,9.954397208E0
8.139035040E-1,5.015852451E-1,2.711433411E0,9.527127266E0,9.918145635E0
8.164164720E-1,4.872200489E-1,2.701856613E0,9.474454880E0,9.864213491E0
8.189295450E-1,4.489128292E-1,2.692279816E0,9.440936089E0,9.827571804E0
8.214427220E-1,4.920084476E-1,2.735375404E0,9.402628899E0,9.804783584E0
8.239560040E-1,5.207388401E-1,2.788047791E0,9.354744911E0,9.775256098E0
8.264693890E-1,5.494692922E-1,2.835932016E0,9.297284126E0,9.735703315E0
8.289828790E-1,5.494692922E-1,2.859874010E0,9.273342133E0,9.719859575E0
8.314964720E-1,5.303156972E-1,2.907757998E0,9.249400139E0,9.710185078E0
8.340101700E-1,4.249708056E-1,2.883816004E0,9.215881348E0,9.665891782E0
8.365239720E-1,3.627215624E-1,2.912546396E0,9.239823341E0,9.694783588E0
8.390378260E-1,3.052607179E-1,2.931699991E0,9.263765335E0,9.721388642E0
8.415517330E-1,2.956839204E-1,2.965218782E0,9.302072525E0,9.767727713E0
8.440656390E-1,3.148375154E-1,2.979583979E0,9.378686905E0,9.845649364E0
8.465795450E-1,3.196259141E-1,2.974795580E0,9.436147690E0,9.899113733E0
8.490934510E-1,3.435679376E-1,2.989160776E0,9.460089684E0,9.927054845E0
8.516072010E-1,3.100491166E-1,2.979583979E0,9.479243279E0,9.941333124E0
8.541204830E-1,8.020575345E-2,2.821566820E0,9.460089684E0,9.872232225E0
8.566337120E-1,-1.017535701E-1,2.649184227E0,9.517550468E0,9.879893612E0
8.591469410E-1,-7.781155407E-2,2.663549423E0,9.627683640E0,9.989636752E0
8.616601180E-1,2.274491638E-2,2.788047791E0,9.733028412E0,1.012450344E1
8.641732950E-1,9.935937077E-2,2.850297213E0,9.867103577E0,1.027101745E1
8.666864720E-1,1.999158412E-1,2.922123194E0,1.005385113E1,1.047180466E1
8.691996490E-1,3.100491166E-1,3.008314371E0,1.025975323E1,1.069619662E1
8.717128260E-1,3.722983599E-1,3.056198359E0,1.039382839E1,1.084023169E1
8.742260040E-1,2.813186944E-1,3.017891169E0,1.041777039E1,1.084973489E1
8.767391810E-1,-5.386953801E-2,2.773682594E0,1.033636761E1,1.070218260E1
8.792523580E-1,-2.980781198E-1,2.510320425E0,1.030284882E1,1.060845196E1
8.817655350E-1,-3.507505357E-1,2.472013235E0,1.025496483E1,1.055453358E1
8.842787640E-1,-2.789244950E-1,2.519897223E0,1.026454163E1,1.057300788E1
8.867920450E-1,-2.741360962E-1,2.553416014E0,1.021665764E1,1.053447565E1
8.893053790E-1,-2.358288616E-1,2.457648039E0,1.013525391E1,1.043163558E1
8.918187640E-1,-5.386953801E-2,2.151190281E0,1.013525391E1,1.036117239E1
8.943322010E-1,-2.513911761E-2,2.122459888E0,1.016398430E1,1.038325791E1
8.968456390E-1,-1.113303825E-1,2.189497471E0,1.012088871E1,1.035561113E1
8.993590760E-1,-1.831564307E-1,2.242169857E0,1.000117874E1,1.025107059E1
9.018725140E-1,-2.597708702E-1,2.299630642E0,9.886257172E0,1.015351480E1
9.043859510E-1,-3.507505357E-1,2.357091665E0,9.756970406E0,1.004377312E1
9.068993890E-1,-4.177882075E-1,2.433706045E0,9.661202431E0,9.971775394E0
9.094126180E-1,-4.704606235E-1,2.524685621E0,9.608530045E0,9.945814210E0
9.119258470E-1,-5.327098966E-1,2.615665436E0,9.522338867E0,9.889409639E0
9.144390760E-1,-6.284779310E-1,2.673126221E0,9.378686905E0,9.772428376E0
9.169523060E-1,-7.003039718E-1,2.730587006E0,9.254188538E0,9.674013466E0
9.194655350E-1,-7.338228226E-1,2.807201385E0,9.182361603E0,9.629882666E0
9.219787640E-1,-7.433996201E-1,2.869450808E0,9.115324020E0,9.585172034E0
9.244919930E-1,-7.003039718E-1,2.917334795E0,9.048286438E0,9.532720253E0
9.270052220E-1,-6.715735793E-1,2.946065187E0,8.966883659E0,9.462310168E0
9.295184510E-1,-5.901707411E-1,2.998737574E0,8.899846077E0,9.409994088E0
9.320317330E-1,-5.135562420E-1,3.041833162E0,8.847173691E0,9.369576902E0
9.345450660E-1,-4.273650050E-1,3.089717388E0,8.780136108E0,9.317713479E0
9.370584510E-1,-3.411737382E-1,3.123236179E0,8.765770912E0,9.311806669E0
9.395718890E-1,-2.885012925E-1,3.151966572E0,8.784924507E0,9.337720539E0
9.420853790E-1,-2.885012925E-1,3.151966572E0,8.737040520E0,9.292685473E0
9.445989200E-1,-2.741360962E-1,3.132812977E0,8.717886925E0,9.267751625E0
9.471125140E-1,-1.879448295E-1,3.108870983E0,8.708310127E0,9.248517034E0
9.496261600E-1,-4.908113554E-2,3.013102770E0,8.583811760E0,9.097418402E0
9.521398580E-1,6.105214357E-2,2.960430384E0,8.545504570E0,9.043977210E0
9.546535560E-1,1.663970202E-1,2.970007181E0,8.646060944E0,9.143467639E0
9.571672540E-1,2.861070931E-1,2.998737574E0,8.737040520E0,9.241761810E0
9.596809510E-1,3.339911401E-1,2.998737574E0,8.741828918E0,9.247894353E0
9.621946490E-1,3.483563364E-1,3.017891169E0,8.722675323E0,9.236562350E0
9.647083470E-1,3.866635859E-1,3.017891169E0,8.737040520E0,9.251651359E0
9.672220450E-1,4.249708056E-1,3.017891169E0,8.799289703E0,9.312130077E0
9.697357430E-1,4.584896266E-1,3.037044764E0,8.832808495E0,9.351596630E0
9.722491810E-1,4.967968464E-1,3.046621561E0,8.871115685E0,9.392837885E0
9.747626180E-1,5.494692922E-1,3.089717388E0,8.885480881E0,9.423377342E0
9.772758470E-1,6.356605291E-1,3.113659382E0,8.909422874E0,9.459215349E0
9.797889200E-1,6.931213737E-1,3.137601376E0,8.938153267E0,9.498186324E0
9.823019410E-1,7.697358727E-1,3.180696964E0,8.904634476E0,9.486930043E0
9.848149620E-1,8.319851160E-1,3.238157749E0,8.871115685E0,9.480219319E0
9.873279830E-1,8.750807047E-1,3.266888142E0,8.866327286E0,9.489472267E0
9.898410040E-1,9.421183467E-1,3.329137564E0,8.875904083E0,9.526406310E0
9.923540240E-1,9.660604000E-1,3.381809950E0,8.875904083E0,9.547333896E0
9.948670970E-1,1.157596469E0,3.463212729E0,9.077016830E0,9.783971920E0
9.973801700E-1,1.238999367E0,3.602076530E0,9.000402451E0,9.773296222E0
9.998932430E-1,1.176750183E0,3.721786499E0,8.866327286E0,9.687527821E0
1.002406316E0,1.114500880E0,3.812766314E0,8.837596893E0,9.689293990E0
1.004919389E0,1.104924083E0,3.937264681E0,8.780136108E0,9.685747285E0
1.007432514E0,1.100135684E0,3.999513865E0,8.746617317E0,9.680378307E0
1.009945691E0,1.071405292E0,4.056974888E0,8.703521729E0,9.662207047E0
1.012458972E0,1.133654475E0,4.138377666E0,8.655637741E0,9.660818127E0
1.014972358E0,1.238999367E0,4.157531261E0,8.708310127E0,9.729072458E0
1.017485847E0,1.310825467E0,4.234145641E0,8.689156532E0,9.754367943E0
1.019999441E0,1.435323954E0,4.305971622E0,8.646060944E0,9.765035397E0
1.022513087E0,1.631648421E0,4.320336819E0,8.660426140E0,9.814813688E0
1.025026785E0,1.804031014E0,4.406527996E0,8.650849342E0,9.874675247E0
1.027540535E0,2.029085875E0,4.454412460E0,8.559869766E0,9.860545130E0
1.030054337E0,2.254140854E0,4.497508049E0,8.569446564E0,9.937008808E0
1.032568243E0,2.464830637E0,4.617218018E0,8.574234962E0,1.004547647E1
1.035082254E0,2.651578426E0,4.660313606E0,8.521562576E0,1.006808918E1
1.037596316E0,2.656366825E0,4.770446777E0,8.602965355E0,1.018942884E1
1.040110431E0,2.685097218E0,4.851849556E0,8.713098526E0,1.032803355E1
1.042624597E0,2.728192806E0,4.909310818E0,8.799289703E0,1.043895914E1
1.045138764E0,2.718616009E0,5.005078793E0,8.995614052E0,1.064719488E1
1.047652931E0,2.704250813E0,5.120000362E0,9.120112419E0,1.080295454E1
1.050167097E0,2.637213230E0,5.191826344E0,9.258976936E0,1.093794351E1
1.052681264E0,2.536656618E0,5.234921932E0,9.330802917E0,1.099558627E1
1.055195379E0,2.436100245E0,5.206191540E0,9.316437721E0,1.094691859E1
1.057709285E0,2.364274263E0,5.177461147E0,9.335591316E0,1.093385394E1
1.060222879E0,2.373851061E0,5.201403141E0,9.421782494E0,1.102087786E1
1.062736472E0,2.349909067E0,5.254075527E0,9.512762070E0,1.111845423E1
1.065250066E0,2.230198860E0,5.177461147E0,9.517550468E0,1.106181078E1
1.067763660E0,2.019509077E0,4.933252811E0,9.421782494E0,1.082521989E1
1.070277254E0,1.655590534E0,4.636371613E0,9.330802917E0,1.054991966E1
1.072790899E0,1.071405292E0,4.382586002E0,9.201516151E0,1.024806659E1
1.075304545E0,8.080430627E-1,4.023456097E0,9.354744911E0,1.021530151E1
1.077818191E0,6.117185354E-1,3.736151695E0,9.445724487E0,1.017618495E1
1.080331889E0,3.770867586E-1,3.568557739E0,9.402628899E0,1.006410597E1
1.082845639E0,2.047042400E-1,3.482366323E0,9.378686905E0,1.000642529E1
1.085359441E0,1.376665980E-1,3.434482336E0,9.378686905E0,9.988713084E0
1.087873295E0,1.424549967E-1,3.482366323E0,9.397840500E0,1.002330159E1
1.090387201E0,1.903390288E-1,3.582922935E0,9.421782494E0,1.008184264E1
1.092901160E0,2.094926536E-1,3.693056107E0,9.445724487E0,1.014417378E1
1.095415118E0,2.094926536E-1,3.697844505E0,9.536704063E0,1.023067278E1
1.097929076E0,3.052607179E-1,3.731363297E0,9.632472038E0,1.033444598E1
1.100442931E0,3.435679376E-1,3.702632904E0,9.608530045E0,1.030297913E1
1.102956681E0,2.430114746E-1,3.616441727E0,9.436147690E0,1.010834252E1
1.105470431E0,3.148375154E-1,3.693056107E0,9.440936089E0,1.014243858E1
1.107984181E0,5.590460896E-1,3.745728493E0,9.565434456E0,1.028788369E1
1.110497931E0,8.032546639E-1,3.841496706E0,9.608530045E0,1.037912157E1
1.113011681E0,8.798691034E-1,3.918111086E0,9.484031677E0,1.029915632E1
1.115525431E0,9.181763530E-1,3.927687883E0,9.311649323E0,1.014773832E1
1.118038764E0,9.181763530E-1,4.143166065E0,9.258976936E0,1.018516209E1
1.120552097E0,1.061828494E0,4.262876034E0,9.402628899E0,1.037829572E1
1.123065326E0,1.397016644E0,4.286818027E0,9.594164848E0,1.060077655E1
1.125578556E0,1.291671872E0,4.420893669E0,9.273342133E0,1.035410988E1
1.128091785E0,1.104924083E0,4.545392036E0,8.871115685E0,1.002886531E1
1.130605014E0,9.516952038E-1,4.588487625E0,8.693944931E0,9.876468038E0
1.133118295E0,7.841010690E-1,4.602852821E0,8.373122215E0,9.586983061E0
1.135631629E0,8.224082589E-1,4.540603638E0,8.416217804E0,9.598237279E0
1.138145014E0,7.984662652E-1,4.459200859E0,8.392275810E0,9.536892259E0
1.140658451E0,7.362170219E-1,4.420893669E0,8.239047050E0,9.379137094E0
1.143171941E0,6.596025825E-1,4.368220806E0,8.013991356E0,9.150982790E0
1.145685431E0,6.548141837E-1,4.272452831E0,7.889492989E0,8.995928770E0
1.148198920E0,7.362170219E-1,4.200626850E0,7.879916191E0,8.959930838E0
1.150712149E0,8.224082589E-1,4.133589268E0,7.865550995E0,8.923553554E0
1.153225222E0,9.373299479E-1,4.090493679E0,7.846397400E0,8.898127788E0
1.155738243E0,1.047463298E0,4.018667698E0,7.827243805E0,8.860734451E0
1.158251264E0,1.109712481E0,3.846285105E0,7.721899033E0,8.697878797E0
1.160764285E0,1.157596469E0,3.640383720E0,7.554305077E0,8.465219927E0
1.163277306E0,1.277306557E0,3.683479309E0,7.544728279E0,8.492494137E0
1.165790326E0,9.947907925E-1,3.645172119E0,7.477690697E0,8.378111163E0
1.168303399E0,5.734112859E-1,3.597288132E0,7.348403454E0,8.201726387E0
1.170816524E0,6.883329749E-1,3.721786499E0,7.300519466E0,8.223325453E0
1.173329701E0,6.548141837E-1,3.558980942E0,7.065887928E0,7.938633331E0
1.175842983E0,6.356605291E-1,3.496731520E0,6.950965881E0,7.806863795E0
1.178356368E0,6.787561774E-1,3.530250311E0,6.989273548E0,7.859600622E0
1.180869858E0,7.457938194E-1,3.568557739E0,7.032369137E0,7.921175950E0
1.183383451E0,9.325415492E-1,3.468001127E0,7.032369137E0,7.896257420E0
1.185897149E0,1.047463298E0,3.458424330E0,7.022792339E0,7.897942165E0
1.188410899E0,1.057040095E0,3.530250311E0,7.056311131E0,7.960623581E0
1.190924701E0,1.066616893E0,3.640383720E0,7.080253124E0,8.032437334E0
1.193438504E0,9.947907925E-1,3.721786499E0,7.132925510E0,8.106782950E0
1.195952149E0,8.990227580E-1,3.784035683E0,7.185597897E0,8.170678374E0
1.198465014E0,8.271966577E-1,3.865438700E0,7.281365871E0,8.285177102E0
1.200977722E0,6.931213737E-1,3.937264681E0,7.410652637E0,8.420228199E0
1.203490431E0,5.351040959E-1,4.013879299E0,7.401075840E0,8.436438052E0
1.206003191E0,3.675099611E-1,4.028244495E0,7.563881874E0,8.577536143E0
1.208516004E0,2.669534981E-1,4.042609692E0,7.597400665E0,8.610136710E0
1.211028920E0,1.855506301E-1,4.052186489E0,7.841609001E0,8.828673519E0
1.213541941E0,1.328781992E-1,4.056974888E0,7.860762596E0,8.846936783E0
1.216055118E0,1.795651205E-2,4.076128483E0,8.004414558E0,8.982527388E0
1.218568451E0,-1.209071875E-1,4.085705280E0,7.942165375E0,8.932278378E0
1.221081941E0,-3.028665185E-1,4.095282078E0,7.937376976E0,8.936722928E0
1.223595587E0,-4.752490520E-1,4.061763287E0,7.884704590E0,8.882136518E0
1.226109389E0,-6.332663298E-1,4.071340084E0,7.870339394E0,8.883641061E0
1.228623295E0,-7.386112213E-1,4.100070477E0,7.841609001E0,8.879580856E0
1.231137306E0,-8.439561129E-1,4.109647274E0,7.788936615E0,8.846976672E0
1.233651368E0,-9.062053561E-1,4.114435673E0,7.721899033E0,8.796448927E0
1.236165483E0,-9.349357486E-1,4.114435673E0,7.568670273E0,8.665301810E0
1.238679597E0,-9.397241473E-1,4.133589268E0,7.554305077E0,8.662399604E0
1.241193712E0,-8.487445116E-1,4.133589268E0,7.515997887E0,8.619579555E0
1.243707826E0,-7.003039718E-1,4.143166065E0,7.439383030E0,8.544042987E0
1.246221368E0,-5.135562420E-1,4.157531261E0,7.381922245E0,8.487731277E0
1.248734910E0,-3.124433160E-1,4.162319660E0,7.329249859E0,8.434478601E0
1.251248451E0,-1.017535701E-1,4.205415249E0,7.262212276E0,8.392591873E0
1.253761993E0,8.020575345E-2,4.214992046E0,7.209539890E0,8.351649917E0
1.256275483E0,2.477998734E-1,4.238934040E0,7.252635479E0,8.404206564E0
1.258788399E0,4.297592044E-1,4.286818027E0,7.276577473E0,8.456363373E0
1.261301160E0,5.686228871E-1,4.358644009E0,7.295731068E0,8.517558417E0
1.263813920E0,6.835445762E-1,4.420893669E0,7.300519466E0,8.562074427E0
1.266326629E0,7.841010690E-1,4.502296448E0,7.271789074E0,8.588620618E0
1.268839337E0,8.367735147E-1,4.545392036E0,7.314884663E0,8.652647936E0
1.271352045E0,7.697358727E-1,4.559757233E0,7.334038258E0,8.670178574E0
1.273864493E0,6.739677787E-1,4.598064423E0,7.353191853E0,8.698612500E0
1.276376941E0,5.255272985E-1,4.636371613E0,7.348403454E0,8.704662773E0
1.278889389E0,3.914519846E-1,4.655525208E0,7.372345448E0,8.728036836E0
1.281401837E0,2.573766708E-1,4.660313606E0,7.415441036E0,8.762050640E0
1.283914285E0,1.089361757E-1,4.650736809E0,7.463325024E0,8.794455092E0
1.286426733E0,-2.035071515E-2,4.650736809E0,7.559093475E0,8.875227388E0
1.288939181E0,-1.017535701E-1,4.693832397E0,7.678803444E0,9.000357698E0
1.291451629E0,-1.879448295E-1,4.708197594E0,7.812878609E0,9.123788686E0
1.293964076E0,-2.501940727E-1,4.727351189E0,7.942165375E0,9.245995737E0
1.296476576E0,-2.789244950E-1,4.751293182E0,8.124124527E0,9.415624520E0
1.298989129E0,-2.549824715E-1,4.775235176E0,8.272565842E0,9.555272505E0
1.301501785E0,-1.640028208E-1,4.808753967E0,8.459313393E0,9.731957394E0
1.304014545E0,-5.865794048E-2,4.851849556E0,8.622118950E0,9.893675760E0
1.306527462E0,1.795651205E-2,4.880579948E0,8.804078102E0,1.006638834E1
1.309040535E0,3.232172132E-2,4.894945145E0,8.947730064E0,1.019918653E1
1.311553816E0,3.711012751E-2,4.856637955E0,9.129689217E0,1.034115731E1
1.314067306E0,2.753331885E-2,4.832695961E0,9.345168114E0,1.052083055E1
1.316580951E0,-1.197100850E-3,4.794388771E0,9.594164848E0,1.072539809E1
1.319094754E0,-3.950432688E-2,4.756081581E0,9.804854393E0,1.089757048E1
1.321608660E0,-3.950432688E-2,4.732139587E0,1.002990913E1,1.109025621E1
1.324122670E0,-5.865794048E-2,4.732139587E0,1.024059963E1,1.128124402E1
1.326636733E0,-4.908113554E-2,4.775235176E0,1.031242561E1,1.136447984E1
1.329150795E0,-8.259996027E-2,4.746504784E0,1.023581123E1,1.128308300E1
1.331664858E0,-1.209071875E-1,4.717774391E0,1.012567711E1,1.117145249E1
1.334178816E0,-1.556231081E-2,4.784811974E0,1.001554394E1,1.109981028E1
1.336692201E0,5.626374111E-2,4.827907562E0,9.824007988E0,1.094636880E1
1.339205222E0,-2.513911761E-2,4.856637955E0,9.795277596E0,1.093320755E1
1.341718035E0,-1.209071875E-1,4.842272758E0,9.766547203E0,1.090172777E1
1.344230847E0,-2.980781198E-1,4.722562790E0,9.637260437E0,1.073630470E1
1.346743660E0,-4.848258495E-1,4.550180435E0,9.484031677E0,1.053024477E1
1.349256472E0,-7.003039718E-1,4.387374401E0,9.378686905E0,1.037782481E1
1.351769337E0,-8.678981066E-1,4.229357243E0,9.292495728E0,1.024652071E1
1.354282254E0,-1.021126986E0,4.114435673E0,9.225458145E0,1.015284981E1
1.356795222E0,-1.126471877E0,4.052186489E0,9.187150002E0,1.010410211E1
1.359308295E0,-1.217451572E0,4.013879299E0,9.158419609E0,1.007323509E1
1.361821472E0,-1.298854470E0,4.009090900E0,9.144054413E0,1.006844397E1
1.364334754E0,-1.322796464E0,4.037821293E0,9.163208008E0,1.010040456E1
1.366848139E0,-1.337161660E0,4.066551685E0,9.144054413E0,1.009646349E1
1.369361629E0,-1.356315255E0,4.143166065E0,9.158419609E0,1.014307970E1
1.371875274E0,-1.480813742E0,4.258087635E0,9.100958824E0,1.015635620E1
1.374389024E0,-1.466448545E0,4.373009205E0,9.062651634E0,1.016884140E1
1.376902879E0,-1.370680451E0,4.502296448E0,9.014767647E0,1.016933990E1
1.379416837E0,-1.265335560E0,4.612429619E0,8.966883659E0,1.016270553E1
1.381930847E0,-1.179144382E0,4.689043999E0,8.928576469E0,1.015366894E1
1.384444910E0,-1.131260276E0,4.760869980E0,8.957306862E0,1.020681042E1
1.386958972E0,-1.102529883E0,4.813542366E0,9.005190849E0,1.027030791E1
1.389473035E0,-1.150413871E0,4.813542366E0,9.019556046E0,1.028815015E1
1.391987097E0,-1.298854470E0,4.818330765E0,9.005190849E0,1.029547457E1
1.394500743E0,-1.399410844E0,4.842272758E0,8.871115685E0,1.020307060E1
1.397014389E0,-1.380257249E0,4.842272758E0,8.655637741E0,1.001362972E1
1.399527879E0,-1.528697729E0,4.818330765E0,8.382699013E0,9.788915713E0
1.402041316E0,-1.686715126E0,4.794388771E0,8.205527306E0,9.652038643E0
1.404554754E0,-1.691503525E0,4.717774391E0,8.282142639E0,9.680519928E0
1.407068191E0,-1.672349930E0,4.650736809E0,8.401852608E0,9.747678410E0
1.409581629E0,-1.662773132E0,4.602852821E0,8.373122215E0,9.698466075E0
1.412095066E0,-1.653196216E0,4.550180435E0,8.282142639E0,9.593283401E0
1.414608504E0,-1.715445518E0,4.507084846E0,8.200738907E0,9.513605298E0
1.417121108E0,-1.729810715E0,4.468777657E0,8.133701324E0,9.440302754E0
1.419633712E0,-1.672349930E0,4.449624062E0,8.085817337E0,9.379570917E0
1.422146316E0,-1.576581836E0,4.392162800E0,8.042721748E0,9.298498667E0
1.424658920E0,-1.442506552E0,4.325125217E0,8.119336128E0,9.311882326E0
1.427171524E0,-1.351526856E0,4.277241230E0,8.157643318E0,9.309595152E0
1.429684129E0,-1.318008065E0,4.277241230E0,8.104970932E0,9.258644156E0
1.432196733E0,-1.294066072E0,4.277241230E0,8.090605736E0,9.242689041E0
1.434709337E0,-1.337161660E0,4.286818027E0,8.042721748E0,9.211415919E0
1.437221941E0,-1.375468850E0,4.301183224E0,8.057086945E0,9.236273151E0
1.439734545E0,-1.399410844E0,4.315548420E0,8.109759331E0,9.292497257E0
1.442247149E0,-1.437718153E0,4.301183224E0,8.157643318E0,9.333507118E0
1.444759754E0,-1.471236944E0,4.291606426E0,8.234258652E0,9.401353063E0
1.447272410E0,-1.504755735E0,4.277241230E0,8.334815025E0,9.488320392E0
1.449785170E0,-1.538274646E0,4.248510838E0,8.392275810E0,9.531339177E0
1.452298035E0,-1.581370234E0,4.238934040E0,8.444948196E0,9.580524185E0
1.454811004E0,-1.638831019E0,4.200626850E0,8.440159798E0,9.569082007E0
1.457324129E0,-1.677138329E0,4.171896458E0,8.454524994E0,9.575829254E0
1.459837410E0,-1.725022316E0,4.147954464E0,8.483255386E0,9.599315089E0
1.462350847E0,-1.772906303E0,4.100070477E0,8.483255386E0,9.587460384E0
1.464864441E0,-1.787271619E0,4.076128483E0,8.473678589E0,9.571436260E0
1.467378139E0,-1.825578809E0,4.061763287E0,8.449736595E0,9.551372022E0
1.469891941E0,-1.844732404E0,4.037821293E0,8.421006203E0,9.519473930E0
1.472405847E0,-1.839944005E0,4.018667698E0,8.397064209E0,9.489245035E0
1.474919858E0,-1.820790410E0,4.037821293E0,8.353968620E0,9.455584076E0
1.477433920E0,-1.825578809E0,4.028244495E0,8.301296234E0,9.405902980E0
1.479947983E0,-1.801636815E0,4.033032894E0,8.248623848E0,9.356871535E0
1.482461993E0,-1.758541107E0,4.013879299E0,8.181585312E0,9.281273192E0
1.484975431E0,-1.720233917E0,3.999513865E0,8.090605736E0,9.187666573E0
1.487488764E0,-1.681926727E0,4.009090900E0,8.013991356E0,9.117332111E0
1.490002097E0,-1.648407817E0,3.989937067E0,7.923011780E0,9.022802325E0
1.492515431E0,-1.619677424E0,3.980360270E0,7.836820602E0,8.937694333E0
1.495028764E0,-1.562216640E0,3.970783472E0,7.755417824E0,8.851787833E0
1.497542097E0,-1.509544134E0,3.946841478E0,7.678803444E0,8.764719247E0
1.500055431E0,-1.461660147E0,3.908534288E0,7.635707855E0,8.701558775E0
1.502568764E0,-1.423352957E0,3.875015497E0,7.597400665E0,8.646512338E0
1.505082097E0,-1.399410844E0,3.841496706E0,7.535151482E0,8.572861570E0
1.507595431E0,-1.361103654E0,3.793612480E0,7.511209488E0,8.524222356E0
1.510108764E0,-1.346738458E0,3.745728493E0,7.472901821E0,8.466903096E0
1.512621993E0,-1.332373261E0,3.712209702E0,7.439383030E0,8.420222042E0
1.515135222E0,-1.318008065E0,3.664325714E0,7.439383030E0,8.396954690E0
1.517648451E0,-1.298854470E0,3.616441727E0,7.463325024E0,8.394456153E0
1.520161681E0,-1.303642869E0,3.582922935E0,7.487267494E0,8.402142347E0
1.522674910E0,-1.318008065E0,3.582922935E0,7.520786285E0,8.434258021E0
1.525188139E0,-1.351526856E0,3.568557739E0,7.554305077E0,8.463377244E0
1.527701368E0,-1.385045648E0,3.549403906E0,7.597400665E0,8.499242107E0
1.530214597E0,-1.408987641E0,3.520673513E0,7.602189064E0,8.495508621E0
1.532727826E0,-1.447294950E0,3.520673513E0,7.635707855E0,8.531930562E0
1.535241056E0,-1.461660147E0,3.468001127E0,7.669226646E0,8.542863663E0
1.537754285E0,-1.466448545E0,3.429693937E0,7.697957039E0,8.554052514E0
1.540267514E0,-1.480813742E0,3.391386747E0,7.731475830E0,8.571466148E0
1.542780743E0,-1.471236944E0,3.353079557E0,7.779359818E0,8.598029997E0
1.545293816E0,-1.466448545E0,3.333925962E0,7.808090210E0,8.615788205E0
1.547806629E0,-1.437718153E0,3.286041737E0,7.832032204E0,8.614280714E0
1.550319441E0,-1.447294950E0,3.281253338E0,7.851185799E0,8.631477544E0
1.552832254E0,-1.476025343E0,3.257311344E0,7.860762596E0,8.635989613E0
1.555345118E0,-1.442506552E0,3.233369350E0,7.875127792E0,8.634416034E0
1.557858035E0,-1.413776159E0,3.190273762E0,7.913434982E0,8.648645150E0
1.560371004E0,-1.404199243E0,3.123236179E0,7.966107368E0,8.670942645E0
1.562884024E0,-1.394622445E0,3.056198359E0,8.013991356E0,8.689613203E0
1.565397149E0,-1.389834046E0,3.017891169E0,8.023568153E0,8.684293391E0
1.567910379E0,-1.380257249E0,2.931699991E0,8.047510147E0,8.675390163E0
1.570423712E0,-1.380257249E0,2.869450808E0,8.037933350E0,8.645648070E0
1.572937149E0,-1.375468850E0,2.826355219E0,8.028356552E0,8.621757785E0
1.575450691E0,-1.370680451E0,2.759317398E0,8.037933350E0,8.608192025E0
1.577964285E0,-1.341950059E0,2.711433411E0,8.018779755E0,8.570503477E0
1.580477931E0,-1.332373261E0,2.673126221E0,8.023568153E0,8.561452459E0
1.582991576E0,-1.327584863E0,2.634819031E0,8.033144951E0,8.557813430E0
1.585505222E0,-1.303642869E0,2.572569609E0,8.028356552E0,8.530656953E0
1.588018868E0,-1.289277673E0,2.543839216E0,8.023568153E0,8.515339147E0
1.590532514E0,-1.265335560E0,2.500743628E0,8.037933350E0,8.512529900E0
1.593046160E0,-1.236605167E0,2.472013235E0,8.057086945E0,8.518021590E0
1.595559806E0,-1.236605167E0,2.457648039E0,8.090605736E0,8.545591109E0
1.598073347E0,-1.231816769E0,2.448071241E0,8.109759331E0,8.560293322E0
1.600586368E0,-1.231816769E0,2.424129248E0,8.128912926E0,8.571639313E0
1.603099285E0,-1.236605167E0,2.409764051E0,8.167220116E0,8.604628960E0
1.605612201E0,-1.260547161E0,2.395398855E0,8.219893456E0,8.654106727E0
1.608125118E0,-1.255758762E0,2.400187254E0,8.277354240E0,8.709329604E0
1.610638035E0,-1.236605167E0,2.400187254E0,8.315661430E0,8.743015282E0
1.613150951E0,-1.222239971E0,2.414552450E0,8.358757019E0,8.785940643E0
1.615663920E0,-1.236605167E0,2.443282843E0,8.421006203E0,8.855064588E0
1.618176941E0,-1.255758762E0,2.476801634E0,8.478466988E0,8.921652250E0
1.620690066E0,-1.298854470E0,2.500743628E0,8.526350975E0,8.979944464E0
1.623203295E0,-1.318008065E0,2.524685621E0,8.545504570E0,9.007598520E0
1.625716629E0,-1.356315255E0,2.534262419E0,8.607753754E0,9.074993210E0
1.628230066E0,-1.365892053E0,2.539050817E0,8.674791336E0,9.141359028E0
1.630743608E0,-1.418564558E0,2.539050817E0,8.722675323E0,9.194790332E0
1.633257254E0,-1.509544134E0,2.529474020E0,8.794501305E0,9.274708379E0
1.635771004E0,-1.634042621E0,2.510320425E0,8.885480881E0,9.376757137E0
1.638284806E0,-1.595735431E0,2.476801634E0,8.938153267E0,9.411243367E0
1.640798660E0,-1.490390539E0,2.404975653E0,8.971672058E0,9.407235054E0
1.643312566E0,-1.447294950E0,2.323572636E0,8.966883659E0,9.375428258E0
1.645826472E0,-1.432929754E0,2.227804661E0,9.000402451E0,9.382091748E0
1.648340379E0,-1.456871748E0,2.146401882E0,8.995614052E0,9.362189301E0
1.650854285E0,-1.399410844E0,2.093729496E0,9.014767647E0,9.359919318E0
1.653368191E0,-1.179144382E0,2.036268473E0,9.086593628E0,9.386317410E0
1.655882097E0,-1.040280581E0,1.954865694E0,9.081805229E0,9.347880497E0
1.658396004E0,-9.684545994E-1,1.892616391E0,9.053074837E0,9.299358317E0
1.660909910E0,-9.493009448E-1,1.854309201E0,9.038709641E0,9.275662071E0
1.663423816E0,-8.822633028E-1,1.839944005E0,9.053074837E0,9.280191080E0
1.665937722E0,-6.955155730E-1,1.839944005E0,9.024344444E0,9.236229128E0
1.668451264E0,-5.949591398E-1,1.825578809E0,8.928576469E0,9.132699061E0
1.670964806E0,-5.327098966E-1,1.839944005E0,8.847173691E0,9.052163061E0
1.673478347E0,-5.183446407E-1,1.863885999E0,8.847173691E0,9.056226283E0
1.675991889E0,-5.327098966E-1,1.916558504E0,8.861538887E0,9.082061868E0
1.678505431E0,-5.279214978E-1,1.993172884E0,8.842385292E0,9.079604447E0
1.681018972E0,-5.758054852E-1,2.050633669E0,8.794501305E0,9.048751494E0
1.683532514E0,-6.332663298E-1,2.108094692E0,8.679579735E0,8.954339386E0
1.686046056E0,-6.859387755E-1,2.151190281E0,8.641272545E0,8.931389748E0
1.688559649E0,-7.098808289E-1,2.208651066E0,8.631695747E0,8.938022253E0
1.691073295E0,-7.481880188E-1,2.270900249E0,8.674791336E0,8.998265276E0
1.693586993E0,-7.912836671E-1,2.328361034E0,8.713098526E0,9.053478938E0
1.696100743E0,-8.295909166E-1,2.381033659E0,8.737040520E0,9.093592217E0
1.698614545E0,-8.726865053E-1,2.433706045E0,8.722675323E0,9.097778391E0
1.701128399E0,-9.349357486E-1,2.457648039E0,8.708310127E0,9.096636962E0
1.703642306E0,-9.445125461E-1,2.419340849E0,8.607753754E0,8.991036580E0
1.706156212E0,-9.636662006E-1,2.342726469E0,8.334815025E0,8.711266347E0
1.708670118E0,-9.684545994E-1,2.366668463E0,8.277354240E0,8.663349072E0
1.711184024E0,-9.780313969E-1,2.467224836E0,8.421006203E0,8.829331191E0
1.713697931E0,-1.054645896E0,2.639607430E0,8.727463722E0,9.178694263E0
1.716211681E0,-1.140837073E0,2.754528999E0,8.885480881E0,9.372337474E0
1.718725118E0,-1.250970364E0,2.831143618E0,9.014767647E0,9.531334469E0
1.721238556E0,-1.365892053E0,2.907757998E0,9.134477615E0,9.682943714E0
1.723751993E0,-1.466448545E0,2.946065187E0,9.340379715E0,9.903154278E0
1.726265431E0,-1.538274646E0,3.003525972E0,9.488820076E0,1.007100609E1
1.728778868E0,-1.614889026E0,3.041833162E0,9.536704063E0,1.013949407E1
1.731292306E0,-1.653196216E0,3.070563793E0,9.618106842E0,1.023080637E1
1.733805743E0,-1.667561531E0,3.084928989E0,9.737816811E0,1.035000602E1
1.736319181E0,-1.672349930E0,3.056198359E0,9.814431190E0,1.041442088E1
1.738832618E0,-1.653196216E0,3.017891169E0,9.733028412E0,1.032339900E1
1.741346056E0,-1.634042621E0,2.946065187E0,9.622895241E0,1.019556316E1
1.743859493E0,-1.610100627E0,2.898181200E0,9.594164848E0,1.015085600E1
1.746372931E0,-1.586158633E0,2.797624588E0,9.527127266E0,1.005528500E1
1.748886368E0,-1.605312228E0,2.749740601E0,9.455301285E0,9.977014739E0
1.751399806E0,-1.614889026E0,2.663549423E0,9.354744911E0,9.859696468E0
1.753913243E0,-1.634042621E0,2.586935043E0,9.273342133E0,9.765101255E0
1.756426681E0,-1.662773132E0,2.510320425E0,9.191938400E0,9.672551612E0
1.758940118E0,-1.681926727E0,2.433706045E0,9.120112419E0,9.587922255E0
1.761453556E0,-1.686715126E0,2.366668463E0,9.077016830E0,9.530916119E0
1.763966993E0,-1.681926727E0,2.313995838E0,9.086593628E0,9.526260442E0
1.766480066E0,-1.696291924E0,2.280477047E0,9.086593628E0,9.520722956E0
1.768992931E0,-1.710657120E0,2.232593060E0,9.110535622E0,9.534814045E0
1.771505795E0,-1.710657120E0,2.208651066E0,9.187150002E0,9.602510737E0
1.774018660E0,-1.744175911E0,2.184709072E0,9.239823341E0,9.653467704E0
1.776531576E0,-1.777694821E0,2.170343876E0,9.321226120E0,9.734261544E0
1.779044545E0,-1.806425214E0,2.151190281E0,9.364321709E0,9.776569579E0
1.781557618E0,-1.859097600E0,2.127248287E0,9.445724487E0,9.859165292E0
1.784070795E0,-1.887827992E0,2.093729496E0,9.503185272E0,9.912523798E0
1.786584129E0,-1.921346903E0,2.060210466E0,9.503185272E0,9.911940850E0
1.789097618E0,-1.983596087E0,2.026691675E0,9.546280861E0,9.958594823E0
1.791611264E0,-2.021903276E0,1.997961283E0,9.584588051E0,9.997213124E0
1.794125066E0,-2.036268473E0,1.964442492E0,9.646837234E0,1.005320308E1
1.796639024E0,-2.088941097E0,1.930923700E0,9.728240013E0,1.013562011E1
1.799153087E0,-2.136825085E0,1.911770105E0,9.838373184E0,1.024765697E1
1.801667254E0,-2.170343876E0,1.897404790E0,9.972448349E0,1.038076411E1
1.804181472E0,-2.242169857E0,1.878251195E0,1.007300472E1,1.048906942E1
1.806695691E0,-2.323572636E0,1.859097600E0,1.015919590E1,1.058605191E1
1.809209910E0,-2.419340849E0,1.835155606E0,1.023102283E1,1.067215229E1
1.811723295E0,-2.486378431E0,1.835155606E0,1.031242561E1,1.076550026E1
1.814236420E0,-2.529474020E0,1.844732404E0,1.040340519E1,1.086425865E1
1.816749545E0,-2.572569609E0,1.839944005E0,1.048959637E1,1.095605496E1
1.819262670E0,-2.582146645E0,1.859097600E0,1.060451794E1,1.107156384E1
1.821775795E0,-2.610877037E0,1.859097600E0,1.070028591E1,1.117000633E1
1.824288920E0,-2.610877037E0,1.859097600E0,1.075774670E1,1.122506289E1
1.826802045E0,-2.591723442E0,1.859097600E0,1.082478428E1,1.128491156E1
1.829315170E0,-2.567781210E0,1.849520802E0,1.087266827E1,1.132383075E1
1.831828295E0,-2.539050817E0,1.844732404E0,1.091097546E1,1.135337844E1
1.834341420E0,-2.510320425E0,1.854309201E0,1.094928265E1,1.138538369E1
1.836854545E0,-2.486378431E0,1.844732404E0,1.094928265E1,1.137857222E1
1.839367670E0,-2.467224836E0,1.830367208E0,1.092534065E1,1.134903127E1
1.841880847E0,-2.424129248E0,1.792060018E0,1.091097546E1,1.131977328E1
1.844394076E0,-2.381033659E0,1.768117905E0,1.087266827E1,1.126989252E1
1.846907358E0,-2.371456861E0,1.729810715E0,1.080084229E1,1.119259786E1
1.849420691E0,-2.294842243E0,1.691503525E0,1.070986271E1,1.108280850E1
1.851934076E0,-2.237381458E0,1.648407817E0,1.064761353E1,1.100430815E1
1.854447514E0,-2.213439465E0,1.619677424E0,1.056621075E1,1.091638579E1
1.856961004E0,-2.199074268E0,1.581370234E0,1.045128918E1,1.079657839E1
1.859474545E0,-2.194285870E0,1.547851443E0,1.036030960E1,1.070265152E1
1.861988139E0,-2.155978680E0,1.538274646E0,1.025975323E1,1.059608745E1
1.864501785E0,-2.146401882E0,1.547851443E0,1.016877270E1,1.050746512E1
1.867015483E0,-2.108094692E0,1.552639842E0,1.010173512E1,1.043550699E1
1.869529233E0,-2.074575663E0,1.557428241E0,1.000596714E1,1.033677055E1
1.872043035E0,-2.041056871E0,1.576581836E0,9.934141159E0,1.026346355E1
1.874556889E0,-2.036268473E0,1.610100627E0,9.891045570E0,1.022602542E1
1.877070743E0,-2.041056871E0,1.629254222E0,9.867103577E0,1.020686609E1
1.879584597E0,-2.036268473E0,1.648407817E0,9.852738380E0,1.019510133E1
1.882098451E0,-2.017114878E0,1.662773132E0,9.871891975E0,1.021214072E1
1.884612306E0,-2.012326479E0,1.643619418E0,9.905410767E0,1.024051293E1
1.887126160E0,-2.002749681E0,1.634042621E0,9.962871552E0,1.029271155E1
1.889640014E0,-1.993172884E0,1.586158633E0,9.962871552E0,1.028335776E1
1.892153868E0,-2.017114878E0,1.538274646E0,9.958083153E0,1.027611120E1
1.894667722E0,-1.964442492E0,1.485602140E0,9.986813545E0,1.028603387E1
1.897181368E0,-1.969230890E0,1.413776159E0,9.943717957E0,1.023494798E1
1.899695014E0,-1.930923700E0,1.313219666E0,1.000596714E1,1.027484261E1
1.902208660E0,-1.878251195E0,1.193509579E0,1.005385113E1,1.029719453E1
1.904722306E0,-1.792060018E0,1.107318282E0,1.011610031E1,1.033310788E1
1.907235639E0,-1.677138329E0,1.001973391E0,1.023102283E1,1.041588075E1
1.909748608E0,-1.586158633E0,9.445125461E-1,1.027890682E1,1.044336769E1
1.912261576E0,-1.495178938E0,8.918401599E-1,1.033636761E1,1.048195756E1
1.914774545E0,-1.428141356E0,8.487445116E-1,1.041777039E1,1.054940258E1
1.917287566E0,-1.385045648E0,8.439561129E-1,1.045607758E1,1.058112336E1
1.919800639E0,-1.327584863E0,8.200140595E-1,1.052790356E1,1.064291586E1
1.922313816E0,-1.284489155E0,8.248024583E-1,1.057099915E1,1.068064766E1
1.924827097E0,-1.227028370E0,8.391677141E-1,1.061888313E1,1.072242883E1
1.927340535E0,-1.217451572E0,8.678981066E-1,1.065719032E1,1.076155849E1
1.929854129E0,-1.150413871E0,8.918401599E-1,1.074816990E1,1.084628909E1
1.932367879E0,-1.121683478E0,9.301473498E-1,1.081041908E1,1.090818540E1
1.934881785E0,-1.150413871E0,9.588778019E-1,1.078647709E1,1.088994888E1
1.937395847E0,-1.164779186E0,1.016338587E0,1.078647709E1,1.089668494E1
1.939910014E0,-1.150413871E0,1.049857497E0,1.081999588E1,1.093151242E1
1.942424285E0,-1.198297977E0,1.073799491E0,1.076732349E1,1.088688287E1
1.944938608E0,-1.222239971E0,1.126471877E0,1.066197872E1,1.079076456E1
1.947452931E0,-1.236605167E0,1.183932781E0,1.059972954E1,1.073709250E1
1.949967045E0,-1.212663174E0,1.203086376E0,1.058536434E1,1.072230885E1
1.952480431E0,-1.227028370E0,1.255758762E0,1.051353836E1,1.065912837E1
1.954993816E0,-1.279700756E0,1.327584863E0,1.036988640E1,1.053255237E1
1.957507201E0,-1.284489155E0,1.370680451E0,1.030284882E1,1.047269645E1
1.960020587E0,-1.289277673E0,1.394622445E0,1.024059963E1,1.041523353E1
1.962534024E0,-1.279700756E0,1.428141356E0,1.015919590E1,1.033859193E1
1.965047514E0,-1.260547161E0,1.447294950E0,1.010173512E1,1.028244592E1
1.967561056E0,-1.222239971E0,1.476025343E0,1.004906273E1,1.023016046E1
1.970074649E0,-1.174355984E0,1.495178938E0,1.000117874E1,1.018028724E1
1.972588243E0,-1.116895080E0,1.476025343E0,9.996390343E0,1.016631326E1
1.975101837E0,-1.140837073E0,1.509544134E0,9.871891975E0,1.005159111E1
1.977615014E0,-1.150413871E0,1.514332533E0,9.814431190E0,9.996985280E0
1.980127774E0,-1.169567585E0,1.499967337E0,9.814431190E0,9.997042060E0
1.982640535E0,-1.169567585E0,1.461660147E0,9.809642792E0,9.986662627E0
1.985153295E0,-1.140837073E0,1.423352957E0,9.833584785E0,1.000134154E1
1.987666056E0,-1.116895080E0,1.361103654E0,9.857526779E0,1.001353544E1
1.990178816E0,-1.088164687E0,1.318008065E0,9.905410767E0,1.005178641E1
1.992691576E0,-1.040280581E0,1.279700756E0,9.953294754E0,1.008899867E1
1.995204337E0,-1.021126986E0,1.193509579E0,1.000117874E1,1.012377112E1
1.997717097E0,-9.971849918E-1,1.121683478E0,1.009215832E1,1.020314712E1
2.000229858E0,-9.732429981E-1,1.040280581E0,1.017835045E1,1.027755824E1
2.002742618E0,-9.540894032E-1,9.397241473E-1,1.029327202E1,1.038002008E1
2.005255431E0,-9.588778019E-1,8.774749041E-1,1.040340519E1,1.048428578E1
2.007768295E0,-9.588778019E-1,8.008604646E-1,1.050874996E1,1.058275247E1
2.010281212E0,-9.636662006E-1,7.242460251E-1,1.061888313E1,1.068708865E1
2.012794181E0,-9.636662006E-1,6.763619781E-1,1.067634392E1,1.074106315E1
2.015307201E0,-9.923965931E-1,6.380547285E-1,1.074338150E1,1.080796979E1
2.017820274E0,-9.876081944E-1,6.141127348E-1,1.081520748E1,1.087755567E1
2.020333451E0,-9.876081944E-1,5.901707411E-1,1.084872627E1,1.090956155E1
2.022846733E0,-9.780313969E-1,5.853823423E-1,1.093012905E1,1.098940121E1
2.025360118E0,-9.828197956E-1,5.949591398E-1,1.097801304E1,1.103796546E1
2.027873556E0,-9.684545994E-1,5.949591398E-1,1.102110863E1,1.107956299E1
2.030387045E0,-9.445125461E-1,6.284779310E-1,1.105941582E1,1.111745325E1
2.032900587E0,-9.349357486E-1,6.428431273E-1,1.108335781E1,1.114128235E1
2.035414129E0,-9.397241473E-1,6.572083831E-1,1.109293461E1,1.115204925E1
2.037927670E0,-9.301473498E-1,6.763619781E-1,1.113124180E1,1.119049523E1
2.040441212E0,-9.205705523E-1,6.763619781E-1,1.114081860E1,1.119923009E1
2.042954754E0,-9.109937549E-1,6.524199843E-1,1.115997314E1,1.121608497E1
2.045468295E0,-8.822633028E-1,6.332663298E-1,1.118870354E1,1.124128559E1
2.047981837E0,-8.487445116E-1,6.141127348E-1,1.118870354E1,1.123764159E1
2.050495379E0,-8.200140595E-1,5.662286878E-1,1.119828033E1,1.124253176E1
2.053008920E0,-7.817068696E-1,5.135562420E-1,1.120785713E1,1.124681587E1
2.055522514E0,-7.529764175E-1,4.800374508E-1,1.121264553E1,1.124814781E1
2.058036160E0,-7.003039718E-1,4.369418025E-1,1.123658752E1,1.126686483E1
2.060549806E0,-6.715735793E-1,3.746925592E-1,1.126052952E1,1.128675908E1
2.063063504E0,-6.332663298E-1,3.315969408E-1,1.126052952E1,1.128319582E1
2.065577254E0,-6.093243361E-1,2.837128937E-1,1.123658752E1,1.125667217E1
2.068091056E0,-5.901707411E-1,2.549824715E-1,1.121743393E1,1.123584183E1
2.070604910E0,-5.566518903E-1,2.262520641E-1,1.118870354E1,1.120482656E1
2.073118816E0,-5.183446407E-1,1.831564307E-1,1.116476154E1,1.117828823E1
2.075632722E0,-4.656722248E-1,1.927332431E-1,1.113603020E1,1.114742864E1
2.078146629E0,-4.177882075E-1,1.831564307E-1,1.109772301E1,1.110709454E1
2.080660535E0,-3.651157618E-1,1.687912196E-1,1.106420422E1,1.107151367E1
2.083174441E0,-3.555389643E-1,1.400607973E-1,1.102110863E1,1.102773142E1
2.085688347E0,-3.315969408E-1,1.352723986E-1,1.096364784E1,1.096949539E1
2.088202097E0,-3.220201433E-1,1.256955862E-1,1.090618706E1,1.091166406E1
2.090715326E0,-3.028665185E-1,1.209071875E-1,1.084872627E1,1.085362651E1
2.093228556E0,-2.837128937E-1,1.256955862E-1,1.076732349E1,1.077179408E1
2.095741785E0,-2.597708702E-1,1.161187813E-1,1.070507431E1,1.070885524E1
2.098255014E0,-2.310404629E-1,1.161187813E-1,1.066197872E1,1.066511385E1
2.100768243E0,-2.118868530E-1,1.065419763E-1,1.065240192E1,1.065504172E1
2.103281472E0,-1.879448295E-1,1.209071875E-1,1.065240192E1,1.065474582E1
2.105794701E0,-1.735796183E-1,1.448491961E-1,1.063324833E1,1.063565142E1
2.108307983E0,-1.687912196E-1,1.400607973E-1,1.060930634E1,1.061157332E1
2.110821316E0,-1.304839998E-1,1.544260085E-1,1.059972954E1,1.060165741E1
2.113334701E0,-1.065419763E-1,1.400607973E-1,1.057099915E1,1.057246382E1
2.115848139E0,-7.781155407E-2,1.400607973E-1,1.051353836E1,1.051475918E1
2.118361629E0,-5.386953801E-2,1.400607973E-1,1.047044277E1,1.047151807E1
2.120875170E0,-2.992752194E-2,1.735796183E-1,1.043213558E1,1.043362249E1
2.123388764E0,-2.513911761E-2,1.879448295E-1,1.037946320E1,1.038119509E1
2.125902410E0,-1.197100850E-3,2.023100406E-1,1.034594440E1,1.034792232E1
2.128416108E0,1.795651205E-2,2.118868530E-1,1.028848362E1,1.029068091E1
2.130929858E0,6.105214357E-2,2.454056740E-1,1.025017643E1,1.025329548E1
2.133443660E0,7.062894851E-2,2.693476975E-1,1.021186924E1,1.021566493E1
2.135957462E0,8.499415964E-2,3.076549172E-1,1.014961910E1,1.015463655E1
2.138471212E0,1.041477770E-1,3.315969408E-1,1.011610031E1,1.012206939E1
2.140984285E0,1.137245819E-1,3.699041605E-1,1.006821632E1,1.007565096E1
2.143497358E0,1.233013868E-1,3.986345828E-1,1.002033234E1,1.002901655E1
2.146010431E0,1.328781992E-1,4.608838260E-1,9.977236748E0,9.988759865E0
2.148523347E0,1.328781992E-1,4.944026470E-1,9.905410767E0,9.918631612E0
2.151036004E0,1.233013868E-1,5.327098966E-1,9.833584785E0,9.848775193E0
2.153548451E0,1.233013868E-1,5.710170865E-1,9.771335602E0,9.788782518E0
2.156060899E0,1.233013868E-1,6.189011335E-1,9.718663216E0,9.739130174E0
2.158573347E0,1.376665980E-1,6.524199843E-1,9.661202431E0,9.684184857E0
2.161085795E0,1.185129806E-1,7.098808289E-1,9.598953247E0,9.625896299E0
2.163598243E0,9.935937077E-2,7.529764175E-1,9.570222855E0,9.600313081E0
2.166110743E0,1.041477770E-1,7.960720658E-1,9.551069260E0,9.584753596E0
2.168623347E0,9.935937077E-2,8.439561129E-1,9.565434456E0,9.603107337E0
2.171136108E0,8.499415964E-2,8.583213091E-1,9.570222855E0,9.609011654E0
2.173649024E0,9.935937077E-2,8.966285586E-1,9.584588051E0,9.626948798E0
2.176162097E0,1.041477770E-1,9.062053561E-1,9.598953247E0,9.642196759E0
2.178675326E0,8.978256583E-2,9.062053561E-1,9.598953247E0,9.642052297E0
2.181188764E0,8.978256583E-2,9.301473498E-1,9.613318443E0,9.658629639E0
2.183702410E0,8.499415964E-2,9.253589511E-1,9.627683640E0,9.672425004E0
2.186216212E0,1.137245819E-1,9.157821536E-1,9.637260437E0,9.681341796E0
2.188730170E0,1.233013868E-1,9.157821536E-1,9.627683640E0,9.671925995E0
2.191244285E0,1.280897856E-1,9.014169574E-1,9.618106842E0,9.661104427E0
2.193758556E0,1.663970202E-1,8.822633028E-1,9.627683640E0,9.669455453E0
2.196272931E0,1.903390288E-1,8.678981066E-1,9.642048836E0,9.682901519E0
2.198787410E0,2.334346622E-1,8.343793154E-1,9.622895241E0,9.661821433E0
2.201301941E0,2.621650994E-1,8.248024583E-1,9.608530045E0,9.647428634E0
2.203816524E0,2.861070931E-1,7.960720658E-1,9.613318443E0,9.650465248E0
2.206331108E0,2.956839204E-1,7.912836671E-1,9.613318443E0,9.650360113E0
2.208845535E0,3.052607179E-1,8.008604646E-1,9.627683640E0,9.665756766E0
2.211359076E0,2.956839204E-1,8.104372621E-1,9.642048836E0,9.680565236E0
2.213872306E0,3.148375154E-1,8.104372621E-1,9.665990829E0,9.705014680E0
2.216385535E0,3.196259141E-1,8.295909166E-1,9.723451614E0,9.764010094E0
2.218898764E0,3.100491166E-1,8.583213091E-1,9.733028412E0,9.775719308E0
2.221411993E0,3.004723191E-1,9.062053561E-1,9.804854393E0,9.851226392E0
2.223925222E0,2.717418969E-1,9.445125461E-1,9.843161583E0,9.892106831E0
2.226438451E0,2.238578647E-1,9.588778019E-1,9.881468773E0,9.930407046E0
2.228951681E0,2.047042400E-1,9.923965931E-1,9.910199165E0,9.961867411E0
2.231464910E0,1.520318091E-1,1.045069098E0,9.910199165E0,9.966309778E0
2.233978139E0,1.041477770E-1,1.069011092E0,9.962871552E0,1.002060083E1
2.236491368E0,8.499415964E-2,1.112106681E0,9.996390343E0,1.005842061E1
2.239004597E0,6.105214357E-2,1.136048675E0,1.000596714E1,1.007043755E1
2.241517826E0,2.274491638E-2,1.159990668E0,1.000596714E1,1.007300720E1
2.244031108E0,-1.556231081E-2,1.198297977E0,9.986813545E0,1.005845938E1
2.246544441E0,-5.386953801E-2,1.207874775E0,9.948506355E0,1.002170854E1
2.249057826E0,-6.823474914E-2,1.231816769E0,9.905410767E0,9.981943247E0
2.251571264E0,-8.259996027E-2,1.250970364E0,9.871891975E0,9.951180874E0
2.254084754E0,-9.217676520E-2,1.270123959E0,9.824007988E0,9.906202318E0
2.256598295E0,-1.161187813E-1,1.274912357E0,9.780912399E0,9.864336392E0
2.259111889E0,-1.256955862E-1,1.270123959E0,9.752182007E0,9.835347891E0
2.261625535E0,-1.544260085E-1,1.279700756E0,9.718663216E0,9.803769485E0
2.264139181E0,-1.496376097E-1,1.284489155E0,9.704298019E0,9.790081912E0
2.266652826E0,-1.592144072E-1,1.294066072E0,9.699509621E0,9.786748342E0
2.269166472E0,-1.783680320E-1,1.303642869E0,9.733028412E0,9.821565148E0
2.271680118E0,-2.023100406E-1,1.294066072E0,9.723451614E0,9.811271459E0
2.274193608E0,-2.501940727E-1,1.270123959E0,9.713874817E0,9.799753869E0
2.276707097E0,-2.789244950E-1,1.250970364E0,9.685144424E0,9.769582808E0
2.279220587E0,-3.076549172E-1,1.222239971E0,9.675567627E0,9.757311669E0
2.281734076E0,-3.411737382E-1,1.188721180E0,9.685144424E0,9.763784107E0
2.284247566E0,-3.603273630E-1,1.145625472E0,9.689932823E0,9.764071469E0
2.286761004E0,-3.890577853E-1,1.102529883E0,9.713874817E0,9.783981912E0
2.289274129E0,-3.842693865E-1,1.064222693E0,9.718663216E0,9.784306189E0
2.291787201E0,-3.842693865E-1,1.025915384E0,9.766547203E0,9.827797800E0
2.294300274E0,-4.034229815E-1,9.971849918E-1,9.809642792E0,9.868445658E0
2.296813347E0,-4.513070285E-1,9.684545994E-1,9.847949982E0,9.905740820E0
2.299326420E0,-4.991910458E-1,9.397241473E-1,9.914987564E0,9.971923163E0
2.301839545E0,-5.374982953E-1,9.157821536E-1,9.958083153E0,1.001453850E1
2.304352722E0,-5.997475386E-1,8.918401599E-1,1.003469753E1,1.009208752E1
2.306865951E0,-6.572083831E-1,8.631097078E-1,1.010652351E1,1.016458060E1
2.309379233E0,-7.098808289E-1,8.343793154E-1,1.018792725E1,1.024665707E1
2.311892566E0,-7.529764175E-1,7.912836671E-1,1.025975323E1,1.031773423E1
2.314405951E0,-7.912836671E-1,7.529764175E-1,1.030284882E1,1.036058864E1
2.316919389E0,-8.535329103E-1,6.955155730E-1,1.034115601E1,1.039960422E1
2.319432879E0,-8.966285586E-1,6.715735793E-1,1.037467480E1,1.043498112E1
2.321946420E0,-9.253589511E-1,6.619967818E-1,1.038903999E1,1.045115692E1
2.324460014E0,-9.540894032E-1,6.524199843E-1,1.036988640E1,1.043410189E1
2.326973660E0,-9.828197956E-1,6.380547285E-1,1.037946320E1,1.044539635E1
2.329487358E0,-1.006761789E0,6.428431273E-1,1.037946320E1,1.044796979E1
2.332001108E0,-1.049857497E0,6.715735793E-1,1.036988640E1,1.044450840E1
2.334514858E0,-1.069011092E0,6.811503768E-1,1.035073280E1,1.042805927E1
2.337028608E0,-1.102529883E0,7.050924301E-1,1.034594440E1,1.042838881E1
2.339542358E0,-1.140837073E0,7.338228226E-1,1.030284882E1,1.039176111E1
2.342056108E0,-1.188721180E0,7.529764175E-1,1.027411842E1,1.037003090E1
2.344569858E0,-1.231816769E0,7.673416734E-1,1.025496483E1,1.035714678E1
2.347083608E0,-1.260547161E0,7.673416734E-1,1.021186924E1,1.031794872E1
2.349597201E0,-1.289277673E0,7.912836671E-1,1.019271564E1,1.030435922E1
2.352110691E0,-1.337161660E0,8.200140595E-1,1.019271564E1,1.031270462E1
2.354624181E0,-1.370680451E0,8.439561129E-1,1.016877270E1,1.029538562E1
2.357137670E0,-1.408987641E0,8.583213091E-1,1.011610031E1,1.024975352E1
2.359651160E0,-1.442506552E0,8.583213091E-1,1.011610031E1,1.025441496E1
2.362164649E0,-1.461660147E0,8.822633028E-1,1.008258152E1,1.022610821E1
2.364678139E0,-1.490390539E0,9.062053561E-1,1.003948593E1,1.018988468E1
2.367191629E0,-1.533486247E0,9.684545994E-1,1.000117874E1,1.016430325E1
2.369705118E0,-1.538274646E0,1.006761789E0,9.967659950E0,1.013578330E1
2.372218608E0,-1.552639842E0,1.054645896E0,9.919775963E0,1.009578742E1
2.374732149E0,-1.567005038E0,1.097741485E0,9.857526779E0,1.004148273E1
2.377245743E0,-1.581370234E0,1.107318282E0,9.804854393E0,9.993100383E0
2.379759389E0,-1.581370234E0,1.131260276E0,9.752182007E0,9.944120651E0
2.382273087E0,-1.581370234E0,1.174355984E0,9.689932823E0,9.888106083E0
2.384786785E0,-1.576581836E0,1.183932781E0,9.637260437E0,9.836874292E0
2.387300483E0,-1.571793437E0,1.203086376E0,9.589376450E0,9.791531654E0
2.389814181E0,-1.547851443E0,1.198297977E0,9.522338867E0,9.721455634E0
2.392327879E0,-1.538274646E0,1.222239971E0,9.488820076E0,9.690091118E0
2.394841576E0,-1.543063045E0,1.227028370E0,9.464878082E0,9.668017340E0
2.397355274E0,-1.547851443E0,1.198297977E0,9.440936089E0,9.641734095E0
2.399868972E0,-1.538274646E0,1.193509579E0,9.440936089E0,9.639607265E0
2.402382670E0,-1.552639842E0,1.193509579E0,9.455301285E0,9.655976283E0
2.404896368E0,-1.567005038E0,1.212663174E0,9.445724487E0,9.651309126E0
2.407410066E0,-1.581370234E0,1.236605167E0,9.455301285E0,9.666056411E0
2.409923764E0,-1.586158633E0,1.217451572E0,9.464878082E0,9.673779233E0
2.412437462E0,-1.595735431E0,1.207874775E0,9.455301285E0,9.664784293E0
2.414951160E0,-1.590947032E0,1.217451572E0,9.464878082E0,9.674565515E0
2.417464493E0,-1.586158633E0,1.207874775E0,9.450512886E0,9.658522376E0
2.419977670E0,-1.571793437E0,1.217451572E0,9.445724487E0,9.652690507E0
2.422490847E0,-1.567005038E0,1.207874775E0,9.421782494E0,9.627276438E0
2.425004024E0,-1.562216640E0,1.212663174E0,9.412205696E0,9.617727843E0
2.427517201E0,-1.557428241E0,1.212663174E0,9.383475304E0,9.588834312E0
2.430030379E0,-1.552639842E0,1.231816769E0,9.369110107E0,9.576444394E0
2.432543556E0,-1.552639842E0,1.255758762E0,9.340379715E0,9.551456107E0
2.435056785E0,-1.547851443E0,1.284489155E0,9.335591316E0,9.549817888E0
2.437570066E0,-1.552639842E0,1.303642869E0,9.326014519E0,9.543831621E0
2.440083399E0,-1.562216640E0,1.332373261E0,9.287707329E0,9.511952836E0
2.442596785E0,-1.557428241E0,1.361103654E0,9.292495728E0,9.519908756E0
2.445110222E0,-1.557428241E0,1.361103654E0,9.282918930E0,9.510560958E0
2.447623712E0,-1.547851443E0,1.370680451E0,9.278130531E0,9.505699088E0
2.450137254E0,-1.528697729E0,1.365892053E0,9.249400139E0,9.473857756E0
2.452650847E0,-1.523909330E0,1.385045648E0,9.220669746E0,9.447825235E0
2.455164493E0,-1.528697729E0,1.413776159E0,9.206304550E0,9.438841203E0
2.457678191E0,-1.538274646E0,1.413776159E0,9.182361603E0,9.417049247E0
2.460191889E0,-1.538274646E0,1.418564558E0,9.187150002E0,9.422438084E0
2.462705587E0,-1.543063045E0,1.423352957E0,9.177573204E0,9.414607114E0
2.465219285E0,-1.557428241E0,1.476025343E0,9.187150002E0,9.434402932E0
2.467732983E0,-1.552639842E0,1.514332533E0,9.201516151E0,9.453665585E0
2.470246681E0,-1.571793437E0,1.519120932E0,9.206304550E0,9.462256945E0
2.472760379E0,-1.581370234E0,1.543063045E0,9.182361603E0,9.444444927E0
2.475274076E0,-1.562216640E0,1.576581836E0,9.167996407E0,9.432830393E0
2.477787774E0,-1.581370234E0,1.595735431E0,9.163208008E0,9.434589783E0
2.480301472E0,-1.595735431E0,1.619677424E0,9.163208008E0,9.441086141E0
2.482814806E0,-1.590947032E0,1.653196216E0,9.167996407E0,9.450731628E0
2.485327410E0,-1.634042621E0,1.705868721E0,9.172784805E0,9.472067592E0
2.487839754E0,-1.662773132E0,1.734599113E0,9.187150002E0,9.496176795E0
2.490352097E0,-1.653196216E0,1.748964310E0,9.215881348E0,9.524935847E0
2.492864441E0,-1.672349930E0,1.768117905E0,9.215881348E0,9.531813271E0
2.495376785E0,-1.696291924E0,1.782483220E0,9.239823341E0,9.561850663E0
2.497889129E0,-1.696291924E0,1.787271619E0,9.268553734E0,9.590507518E0
2.500401524E0,-1.715445518E0,1.801636815E0,9.297284126E0,9.624351441E0
2.502913972E0,-1.715445518E0,1.801636815E0,9.364321709E0,9.689126359E0
2.505426472E0,-1.705868721E0,1.801636815E0,9.388263702E0,9.710580758E0
2.507939024E0,-1.710657120E0,1.806425214E0,9.383475304E0,9.707683998E0
2.510451629E0,-1.729810715E0,1.806425214E0,9.416994095E0,9.743469348E0
2.512964337E0,-1.729810715E0,1.792060018E0,9.455301285E0,9.777854908E0
2.515477149E0,-1.715445518E0,1.787271619E0,9.479243279E0,9.797609213E0
2.517990066E0,-1.705868721E0,1.777694821E0,9.507973671E0,9.822003375E0
2.520503087E0,-1.710657120E0,1.748964310E0,9.522338867E0,9.831589975E0
2.523016212E0,-1.729810715E0,1.734599113E0,9.555857658E0,9.864861620E0
2.525529389E0,-1.758541107E0,1.725022316E0,9.570222855E0,9.882172550E0
2.528042618E0,-1.772906303E0,1.720233917E0,9.579799652E0,9.893177592E0
2.530555899E0,-1.782483220E0,1.748964310E0,9.575011253E0,9.895300050E0
2.533069181E0,-1.796848416E0,1.753752708E0,9.579799652E0,9.903376907E0
2.535582462E0,-1.787271619E0,1.753752708E0,9.579799652E0,9.901643792E0
2.538095743E0,-1.787271619E0,1.777694821E0,9.570222855E0,9.896651161E0
2.540609024E0,-1.806425214E0,1.796848416E0,9.565434456E0,9.898958158E0
2.543122358E0,-1.820790410E0,1.825578809E0,9.570222855E0,9.911467156E0
2.545635743E0,-1.849520802E0,1.863885999E0,9.575011253E0,9.928526513E0
2.548149181E0,-1.892616391E0,1.868674397E0,9.584588051E0,9.946771783E0
2.550662670E0,-1.911770105E0,1.892616391E0,9.613318443E0,9.982622563E0
2.553176212E0,-1.935712099E0,1.878251195E0,9.637260437E0,1.000757701E1
2.555689806E0,-1.978807688E0,1.863885999E0,9.651625633E0,1.002714457E1
2.558203451E0,-1.988384485E0,1.854309201E0,9.694721222E0,1.006875141E1
2.560717149E0,-2.012326479E0,1.830367208E0,9.718663216E0,1.009218097E1
2.563230847E0,-2.036268473E0,1.825578809E0,9.723451614E0,1.010072466E1
2.565744545E0,-2.055422068E0,1.825578809E0,9.733028412E0,1.011381926E1
2.568258243E0,-2.064998865E0,1.835155606E0,9.752182007E0,1.013592967E1
2.570771941E0,-2.074575663E0,1.859097600E0,9.737816811E0,1.012843444E1
2.573285639E0,-2.055422068E0,1.878251195E0,9.689932823E0,1.008203281E1
2.575799337E0,-2.036268473E0,1.930923700E0,9.670779228E0,1.006969843E1
2.578313035E0,-2.021903276E0,1.983596087E0,9.642048836E0,1.004947024E1
2.580826733E0,-2.007538080E0,2.026691675E0,9.627683640E0,1.004141327E1
2.583340431E0,-2.017114878E0,2.079364061E0,9.608530045E0,1.003575393E1
2.585853972E0,-2.007538080E0,2.141613483E0,9.584588051E0,1.002402342E1
2.588366889E0,-1.993172884E0,2.179920673E0,9.551069260E0,9.997385473E0
2.590879806E0,-2.002749681E0,2.227804661E0,9.541492462E0,1.000070989E1
2.593392722E0,-2.021903276E0,2.251746655E0,9.512762070E0,9.982539659E0
2.595905639E0,-2.012326479E0,2.280477047E0,9.484031677E0,9.959763565E0
2.598418556E0,-2.002749681E0,2.309207439E0,9.455301285E0,9.937110630E0
2.600931472E0,-1.997961283E0,2.352303267E0,9.436147690E0,9.928044277E0
2.603444389E0,-1.997961283E0,2.352303267E0,9.421782494E0,9.914391827E0
2.605957306E0,-2.007538080E0,2.381033659E0,9.407417297E0,9.909542403E0
2.608470222E0,-2.017114878E0,2.400187254E0,9.393052101E0,9.902478430E0
2.610983139E0,-1.993172884E0,2.414552450E0,9.373898506E0,9.882953753E0
2.613496056E0,-1.983596087E0,2.424129248E0,9.378686905E0,9.887913031E0
2.616008972E0,-1.978807688E0,2.424129248E0,9.340379715E0,9.850623112E0
2.618521889E0,-1.964442492E0,2.428917646E0,9.321226120E0,9.830764549E0
2.621034806E0,-1.950077295E0,2.443282843E0,9.335591316E0,9.845084953E0
2.623547722E0,-1.950077295E0,2.438494444E0,9.340379715E0,9.848438954E0
2.626060379E0,-1.926135302E0,2.438494444E0,9.359533310E0,9.861902257E0
2.628573035E0,-1.902193308E0,2.419340849E0,9.354744911E0,9.847984661E0
2.631085743E0,-1.873462796E0,2.400187254E0,9.378686905E0,9.860554232E0
2.633598504E0,-1.859097600E0,2.395398855E0,9.373898506E0,9.852114127E0
2.636111368E0,-1.825578809E0,2.347514868E0,9.369110107E0,9.829739989E0
2.638624389E0,-1.796848416E0,2.299630642E0,9.354744911E0,9.799398842E0
2.641137566E0,-1.768117905E0,2.256535053E0,9.340379715E0,9.770408619E0
2.643650899E0,-1.748964310E0,2.232593060E0,9.345168114E0,9.766038859E0
2.646164389E0,-1.739387512E0,2.208651066E0,9.326014519E0,9.740541836E0
2.648678035E0,-1.720233917E0,2.165555477E0,9.297284126E0,9.699913782E0
2.651191785E0,-1.691503525E0,2.146401882E0,9.278130531E0,9.672224737E0
2.653705639E0,-1.667561531E0,2.136825085E0,9.258976936E0,9.647561185E0
2.656219545E0,-1.662773132E0,2.117671490E0,9.230246544E0,9.614925808E0
2.658733504E0,-1.634042621E0,2.103306293E0,9.206304550E0,9.583842451E0
2.661247462E0,-1.595735431E0,2.108094692E0,9.196727753E0,9.569233833E0
2.663761004E0,-1.571793437E0,2.098517895E0,9.187150002E0,9.553954004E0
2.666273608E0,-1.552639842E0,2.079364061E0,9.182361603E0,9.542023369E0
2.668786212E0,-1.528697729E0,2.084152699E0,9.182361603E0,9.539201949E0
2.671298816E0,-1.504755735E0,2.084152699E0,9.201516151E0,9.553841205E0
2.673811420E0,-1.499967337E0,2.069787264E0,9.191938400E0,9.540736496E0
2.676324024E0,-1.480813742E0,2.079364061E0,9.196727753E0,9.544441607E0
2.678836629E0,-1.480813742E0,2.060210466E0,9.196727753E0,9.540287095E0
2.681349233E0,-1.480813742E0,2.055422068E0,9.215881348E0,9.557721393E0
2.683861837E0,-1.461660147E0,2.045845270E0,9.239823341E0,9.575816865E0
2.686374441E0,-1.495178938E0,2.017114878E0,9.263765335E0,9.598002952E0
2.688887045E0,-1.509544134E0,2.021903276E0,9.297284126E0,9.633603089E0
2.691399701E0,-1.514332533E0,1.969230890E0,9.326014519E0,9.651197859E0
2.693912410E0,-1.514332533E0,1.940500498E0,9.378686905E0,9.696314416E0
2.696425222E0,-1.509544134E0,1.926135302E0,9.412205696E0,9.725139421E0
2.698938139E0,-1.485602140E0,1.883039594E0,9.464878082E0,9.764054944E0
2.701451212E0,-1.456871748E0,1.863885999E0,9.507973671E0,9.797862503E0
2.703964441E0,-1.432929754E0,1.849520802E0,9.551069260E0,9.833460168E0
2.706477826E0,-1.428141356E0,1.849520802E0,9.594164848E0,9.874629819E0
2.708991368E0,-1.404199243E0,1.830367208E0,9.627683640E0,9.900217770E0
2.711505066E0,-1.404199243E0,1.825578809E0,9.632472038E0,9.903990664E0
2.714018868E0,-1.399410844E0,1.825578809E0,9.637260437E0,9.907970399E0
2.716532774E0,-1.380257249E0,1.825578809E0,9.656414032E0,9.923919589E0
2.719046733E0,-1.375468850E0,1.835155606E0,9.656414032E0,9.925021038E0
2.721560691E0,-1.365892053E0,1.854309201E0,9.632472038E0,9.903970985E0
2.724074649E0,-1.399410844E0,1.868674397E0,9.637260437E0,9.916001384E0
2.726587931E0,-1.432929754E0,1.868674397E0,9.627683640E0,9.911484447E0
2.729101108E0,-1.456871748E0,1.878251195E0,9.622895241E0,9.912134768E0
2.731614285E0,-1.466448545E0,1.887827992E0,9.618106842E0,9.910718697E0
2.734127462E0,-1.485602140E0,1.902193308E0,9.622895241E0,9.920960937E0
2.736640639E0,-1.495178938E0,1.916558504E0,9.608530045E0,9.911236359E0
2.739153816E0,-1.509544134E0,1.935712099E0,9.594164848E0,9.903216849E0
2.741666993E0,-1.509544134E0,1.954865694E0,9.579799652E0,9.893067510E0
2.744180170E0,-1.528697729E0,1.969230890E0,9.570222855E0,9.889588087E0
2.746693347E0,-1.538274646E0,1.993172884E0,9.555857658E0,9.881975644E0
2.749206524E0,-1.538274646E0,1.988384485E0,9.570222855E0,9.894904104E0
2.751719754E0,-1.543063045E0,2.002749681E0,9.570222855E0,9.898546122E0
2.754233035E0,-1.557428241E0,2.002749681E0,9.589376450E0,9.919310949E0
2.756746420E0,-1.581370234E0,2.002749681E0,9.594164848E0,9.927725683E0
2.759259910E0,-1.576581836E0,2.007538080E0,9.608530045E0,9.941814173E0
2.761773504E0,-1.557428241E0,2.012326479E0,9.584588051E0,9.916620830E0
2.764287201E0,-1.576581836E0,2.002749681E0,9.579799652E0,9.913081153E0
2.766801004E0,-1.567005038E0,1.988384485E0,9.555857658E0,9.885524429E0
2.769314858E0,-1.567005038E0,1.983596087E0,9.531915665E0,9.861418481E0
2.771828764E0,-1.576581836E0,1.974019289E0,9.512762070E0,9.842510078E0
2.774342722E0,-1.567005038E0,1.969230890E0,9.479243279E0,9.807620926E0
2.776856733E0,-1.567005038E0,1.950077295E0,9.464878082E0,9.789904155E0
2.779370743E0,-1.538274646E0,1.926135302E0,9.436147690E0,9.752803151E0
2.781884754E0,-1.528697729E0,1.935712099E0,9.436147690E0,9.753193390E0
2.784398347E0,-1.519120932E0,1.930923700E0,9.412205696E0,9.727579905E0
2.786911941E0,-1.514332533E0,1.935712099E0,9.397840500E0,9.713886473E0
2.789425379E0,-1.499967337E0,1.940500498E0,9.397840500E0,9.712612947E0
2.791938399E0,-1.523909330E0,1.935712099E0,9.383475304E0,9.701489048E0
2.794451420E0,-1.509544134E0,1.930923700E0,9.373898506E0,9.689022811E0
2.796964441E0,-1.523909330E0,1.940500498E0,9.383475304E0,9.702445599E0
2.799477462E0,-1.528697729E0,1.945288897E0,9.393052101E0,9.713418215E0
2.801990535E0,-1.528697729E0,1.940500498E0,9.402628899E0,9.721722539E0
2.804503660E0,-1.528697729E0,1.940500498E0,9.440936089E0,9.758777237E0
2.807016837E0,-1.538274646E0,1.921346903E0,9.464878082E0,9.779661544E0
2.809530118E0,-1.519120932E0,1.897404790E0,9.488820076E0,9.795181457E0
2.812043504E0,-1.504755735E0,1.849520802E0,9.527127266E0,9.820955705E0
2.814556993E0,-1.485602140E0,1.816002011E0,9.546280861E0,9.830379204E0
2.817070535E0,-1.480813742E0,1.801636815E0,9.579799652E0,9.859577371E0
2.819584129E0,-1.461660147E0,1.768117905E0,9.613318443E0,9.883247584E0
2.822097774E0,-1.437718153E0,1.768117905E0,9.613318443E0,9.879735113E0
2.824611472E0,-1.423352957E0,1.729810715E0,9.622895241E0,9.880196940E0
2.827125170E0,-1.399410844E0,1.696291924E0,9.632472038E0,9.880297291E0
2.829638868E0,-1.385045648E0,1.686715126E0,9.618106842E0,9.862623312E0
2.832152566E0,-1.385045648E0,1.681926727E0,9.618106842E0,9.861805524E0
2.834666264E0,-1.380257249E0,1.686715126E0,9.594164848E0,9.838603413E0
2.837179962E0,-1.375468850E0,1.686715126E0,9.618106842E0,9.861282964E0
2.839693660E0,-1.322796464E0,1.691503525E0,9.637260437E0,9.873589185E0
2.842207201E0,-1.327584863E0,1.705868721E0,9.637260437E0,9.876702810E0
2.844720431E0,-1.327584863E0,1.715445518E0,9.632472038E0,9.873689911E0
2.847233660E0,-1.313219666E0,1.710657120E0,9.637260437E0,9.875610483E0
2.849746837E0,-1.313219666E0,1.710657120E0,9.642048836E0,9.880283368E0
2.852260014E0,-1.313219666E0,1.710657120E0,9.646837234E0,9.884956363E0
2.854773191E0,-1.308431268E0,1.720233917E0,9.661202431E0,9.900001491E0
2.857286368E0,-1.318008065E0,1.710657120E0,9.661202431E0,9.899612389E0
2.859799545E0,-1.322796464E0,1.701080322E0,9.661202431E0,9.898600768E0
2.862312722E0,-1.289277673E0,1.720233917E0,9.670779228E0,9.906836656E0
2.864825899E0,-1.284489155E0,1.705868721E0,9.665990829E0,9.899054460E0
2.867339076E0,-1.274912357E0,1.701080322E0,9.670779228E0,9.901668883E0
2.869852254E0,-1.265335560E0,1.691503525E0,9.656414032E0,9.884765562E0
2.872365483E0,-1.260547161E0,1.715445518E0,9.656414032E0,9.888279144E0
2.874878764E0,-1.227028370E0,1.691503525E0,9.632472038E0,9.856535921E0
2.877392097E0,-1.222239971E0,1.681926727E0,9.608530045E0,9.830900146E0
2.879905483E0,-1.207874775E0,1.705868721E0,9.575011253E0,9.800499480E0
2.882418972E0,-1.183932781E0,1.681926727E0,9.541492462E0,9.760668663E0
2.884932566E0,-1.155202270E0,1.681926727E0,9.503185272E0,9.719768522E0
2.887446264E0,-1.150413871E0,1.662773132E0,9.464878082E0,9.678439114E0
2.889960014E0,-1.140837073E0,1.653196216E0,9.426570892E0,9.638195150E0
2.892473816E0,-1.121683478E0,1.648407817E0,9.369110107E0,9.578916763E0
2.894987618E0,-1.092953086E0,1.643619418E0,9.330802917E0,9.537290722E0
2.897501420E0,-1.069011092E0,1.638831019E0,9.321226120E0,9.524379676E0
2.900015222E0,-1.064222693E0,1.610100627E0,9.302072525E0,9.500186695E0
2.902528556E0,-1.059434295E0,1.600523829E0,9.268553734E0,9.465208179E0
2.905041889E0,-1.059434295E0,1.600523829E0,9.268553734E0,9.465208179E0
2.907555222E0,-1.045069098E0,1.595735431E0,9.263765335E0,9.458112347E0
2.910068556E0,-1.049857497E0,1.610100627E0,9.258976936E0,9.456388248E0
2.912581889E0,-1.054645896E0,1.629254222E0,9.268553734E0,9.469574204E0
2.915095274E0,-1.073799491E0,1.638831019E0,9.254188538E0,9.459324392E0
2.917608712E0,-1.083376288E0,1.667561531E0,9.292495728E0,9.502891270E0
2.920122201E0,-1.083376288E0,1.648407817E0,9.311649323E0,9.518285855E0
2.922635743E0,-1.092953086E0,1.662773132E0,9.340379715E0,9.549976657E0
2.925149337E0,-1.083376288E0,1.677138329E0,9.373898506E0,9.584178126E0
2.927662983E0,-1.078587890E0,1.667561531E0,9.388263702E0,9.596020459E0
2.930176681E0,-1.069011092E0,1.672349930E0,9.388263702E0,9.595782112E0
2.932690431E0,-1.073799491E0,1.657984734E0,9.393052101E0,9.598509598E0
2.935204181E0,-1.069011092E0,1.662773132E0,9.407417297E0,9.612861146E0
2.937717931E0,-1.088164687E0,1.657984734E0,9.445724487E0,9.651669641E0
2.940231681E0,-1.078587890E0,1.643619418E0,9.455301285E0,9.657513086E0
2.942745431E0,-1.064222693E0,1.657984734E0,9.450512886E0,9.653687230E0
2.945259181E0,-1.064222693E0,1.653196216E0,9.484031677E0,9.685684515E0
2.947772931E0,-1.083376288E0,1.634042621E0,9.493608475E0,9.693936318E0
2.950286681E0,-1.102529883E0,1.634042621E0,9.503185272E0,9.705472567E0
2.952800431E0,-1.107318282E0,1.629254222E0,9.503185272E0,9.705212693E0
2.955314181E0,-1.088164687E0,1.614889026E0,9.517550468E0,9.714717488E0
2.957827931E0,-1.059434295E0,1.600523829E0,9.522338867E0,9.713856858E0
2.960341681E0,-1.049857497E0,1.581370234E0,9.531915665E0,9.719071397E0
2.962855431E0,-1.064222693E0,1.567005038E0,9.517550468E0,9.704217725E0
2.965369181E0,-1.083376288E0,1.581370234E0,9.488820076E0,9.680503212E0
2.967882931E0,-1.073799491E0,1.552639842E0,9.474454880E0,9.660695166E0
2.970396681E0,-1.102529883E0,1.543063045E0,9.488820076E0,9.676482943E0
2.972910431E0,-1.097741485E0,1.552639842E0,9.488820076E0,9.677470397E0
2.975424181E0,-1.097741485E0,1.562216640E0,9.517550468E0,9.707178999E0
2.977937931E0,-1.088164687E0,1.562216640E0,9.531915665E0,9.720187213E0
2.980451681E0,-1.064222693E0,1.557428241E0,9.517550468E0,9.702675898E0
2.982965431E0,-1.059434295E0,1.547851443E0,9.512762070E0,9.695921169E0
2.985479233E0,-1.078587890E0,1.567005038E0,9.503185272E0,9.691717440E0
2.987993087E0,-1.112106681E0,1.590947032E0,9.507973671E0,9.704094860E0
2.990506993E0,-1.126471877E0,1.600523829E0,9.479243279E0,9.679187391E0
2.993020899E0,-1.131260276E0,1.600523829E0,9.488820076E0,9.689124459E0
2.995534806E0,-1.140837073E0,1.619677424E0,9.498396873E0,9.702804097E0
2.998048712E0,-1.159990668E0,1.634042621E0,9.517550468E0,9.726224373E0
3.000562618E0,-1.164779186E0,1.672349930E0,9.541492462E0,9.756717852E0
3.003076524E0,-1.174355984E0,1.681926727E0,9.546280861E0,9.764193145E0
3.005590431E0,-1.179144382E0,1.701080322E0,9.551069260E0,9.772767251E0
3.008104337E0,-1.159990668E0,1.701080322E0,9.541492462E0,9.761113206E0
3.010618243E0,-1.164779186E0,1.710657120E0,9.555857658E0,9.777396071E0
3.013132149E0,-1.164779186E0,1.729810715E0,9.555857658E0,9.780765371E0
3.015645899E0,-1.174355984E0,1.725022316E0,9.551069260E0,9.776386754E0
3.018159649E0,-1.169567585E0,1.725022316E0,9.531915665E0,9.757100315E0
3.020673399E0,-1.188721180E0,1.734599113E0,9.522338867E0,9.751760335E0
3.023187149E0,-1.198297977E0,1.739387512E0,9.522338867E0,9.753785135E0
3.025700899E0,-1.183932781E0,1.744175911E0,9.498396873E0,9.729511273E0
3.028214649E0,-1.203086376E0,1.739387512E0,9.484031677E0,9.716982176E0
3.030728399E0,-1.207874775E0,1.725022316E0,9.469666481E0,9.700992048E0
3.033242149E0,-1.203086376E0,1.696291924E0,9.460089684E0,9.685975425E0
3.035755899E0,-1.198297977E0,1.715445518E0,9.455301285E0,9.684079396E0
3.038269649E0,-1.212663174E0,1.710657120E0,9.450512886E0,9.680345736E0
3.040783399E0,-1.203086376E0,1.686715126E0,9.436147690E0,9.660916518E0
3.043297149E0,-1.198297977E0,1.686715126E0,9.431359291E0,9.655644154E0
3.045810899E0,-1.212663174E0,1.677138329E0,9.421782494E0,9.646415412E0
3.048324649E0,-1.207874775E0,1.672349930E0,9.421782494E0,9.644983210E0
3.050838399E0,-1.183932781E0,1.662773132E0,9.416994095E0,9.635677926E0
3.053352149E0,-1.207874775E0,1.648407817E0,9.412205696E0,9.631501745E0
3.055865899E0,-1.227028370E0,1.638831019E0,9.393052101E0,9.613573399E0
3.058379649E0,-1.241393566E0,1.619677424E0,9.407417297E0,9.626209698E0
3.060893399E0,-1.274912357E0,1.595735431E0,9.416994095E0,9.635950958E0
3.063407149E0,-1.284489155E0,1.600523829E0,9.440936089E0,9.661411033E0
3.065920951E0,-1.303642869E0,1.610100627E0,9.469666481E0,9.693631519E0
3.068434806E0,-1.327584863E0,1.614889026E0,9.488820076E0,9.716380734E0
3.070948712E0,-1.313219666E0,1.624465823E0,9.527127266E0,9.753439857E0
3.073462670E0,-1.318008065E0,1.638831019E0,9.565434456E0,9.793898544E0
3.075976681E0,-1.318008065E0,1.634042621E0,9.608530045E0,9.835196498E0
3.078490691E0,-1.322796464E0,1.667561531E0,9.665990829E0,9.897571958E0
3.081004701E0,-1.318008065E0,1.681926727E0,9.699509621E0,9.932094928E0
3.083518712E0,-1.327584863E0,1.701080322E0,9.728240013E0,9.964678097E0
3.086032358E0,-1.346738458E0,1.720233917E0,9.728240013E0,9.970534738E0
3.088546004E0,-1.332373261E0,1.744175911E0,9.728240013E0,9.972764003E0
3.091059649E0,-1.351526856E0,1.748964310E0,9.718663216E0,9.966840808E0
3.093573347E0,-1.356315255E0,1.772906303E0,9.718663216E0,9.971720139E0
3.096087097E0,-1.337161660E0,1.782483220E0,9.713874817E0,9.966173373E0
3.098600899E0,-1.351526856E0,1.792060018E0,9.713874817E0,9.969827878E0
3.101114754E0,-1.365892053E0,1.801636815E0,9.728240013E0,9.987502694E0
3.103628660E0,-1.365892053E0,1.820790410E0,9.761758804E0,1.002361580E1
3.106142618E0,-1.365892053E0,1.849520802E0,9.761758804E0,1.002887448E1
3.108656629E0,-1.370680451E0,1.868674397E0,9.747393608E0,1.001910131E1
3.111170639E0,-1.365892053E0,1.868674397E0,9.737816811E0,1.000912990E1
3.113684649E0,-1.346738458E0,1.916558504E0,9.776124001E0,1.005283549E1
3.116198660E0,-1.341950059E0,1.911770105E0,9.795277596E0,1.006991351E1
3.118712670E0,-1.337161660E0,1.921346903E0,9.790489197E0,1.006644197E1
3.121226368E0,-1.337161660E0,1.935712099E0,9.804854393E0,1.008316182E1
3.123739806E0,-1.332373261E0,1.916558504E0,9.804854393E0,1.007886822E1
3.126253243E0,-1.341950059E0,1.916558504E0,9.800065994E0,1.007548113E1
3.128766681E0,-1.322796464E0,1.930923700E0,9.795277596E0,1.007103371E1
3.131279649E0,-1.322796464E0,1.916558504E0,9.809642792E0,1.008226555E1
3.133792618E0,-1.332373261E0,1.916558504E0,9.809642792E0,1.008352650E1
3.136305587E0,-1.303642869E0,1.921346903E0,9.809642792E0,1.008068204E1
3.138818556E0,-1.294066072E0,1.930923700E0,9.809642792E0,1.008127795E1
3.141331524E0,-1.279700756E0,1.940500498E0,9.795277596E0,1.006730547E1
3.143844493E0,-1.260547161E0,1.954865694E0,9.771335602E0,1.004437546E1
3.146357462E0,-1.265335560E0,1.950077295E0,9.733028412E0,1.000678358E1
3.148870431E0,-1.250970364E0,1.954865694E0,9.718663216E0,9.991938822E0
3.151383451E0,-1.246181965E0,1.959654093E0,9.718663216E0,9.992278436E0
3.153896524E0,-1.255758762E0,1.959654093E0,9.723451614E0,9.998134102E0
3.156409701E0,-1.241393566E0,1.983596087E0,9.704298019E0,9.982440156E0
3.158923035E0,-1.241393566E0,2.002749681E0,9.747393608E0,1.002814771E1
3.161436524E0,-1.250970364E0,2.002749681E0,9.761758804E0,1.004329966E1
3.163950170E0,-1.231816769E0,2.026691675E0,9.747393608E0,1.003177621E1
3.166463972E0,-1.217451572E0,2.041056871E0,9.766547203E0,1.005154445E1
3.168977931E0,-1.217451572E0,2.026691675E0,9.756970406E0,1.003932961E1
3.171492045E0,-1.193509579E0,2.012326479E0,9.713874817E0,9.991660869E0
3.174006316E0,-1.188721180E0,2.002749681E0,9.689932823E0,9.965884931E0
3.176520743E0,-1.179144382E0,2.012326479E0,9.670779228E0,9.948055600E0
3.179035274E0,-1.164779186E0,2.017114878E0,9.646837234E0,9.924058223E0
3.181549910E0,-1.155202270E0,2.007538080E0,9.603741646E0,9.879096873E0
3.184064597E0,-1.136048675E0,2.002749681E0,9.594164848E0,9.866590699E0
3.186579285E0,-1.116895080E0,2.007538080E0,9.598953247E0,9.870033799E0
3.189093972E0,-1.116895080E0,2.007538080E0,9.584588051E0,9.856063711E0
3.191607774E0,-1.078587890E0,1.997961283E0,9.555857658E0,9.821894762E0
3.194121420E0,-1.045069098E0,2.002749681E0,9.555857658E0,9.819245964E0
3.196635014E0,-1.035492182E0,2.007538080E0,9.541492462E0,9.805229809E0
3.199148608E0,-1.016338587E0,2.012326479E0,9.536704063E0,9.799547254E0
3.201662201E0,-9.923965931E-1,2.007538080E0,9.546280861E0,9.805434127E0
3.204175795E0,-9.876081944E-1,2.017114878E0,9.551069260E0,9.811577161E0
3.206689389E0,-1.006761789E0,2.007538080E0,9.575011253E0,9.834867510E0
3.209202983E0,-9.971849918E-1,2.012326479E0,9.579799652E0,9.839532364E0
3.211716524E0,-9.971849918E-1,2.036268473E0,9.627683640E0,9.891059572E0
3.214230066E0,-1.011550188E0,2.017114878E0,9.656414032E0,9.916567862E0
3.216743608E0,-1.021126986E0,2.031480074E0,9.704298019E0,9.967096451E0
3.219257149E0,-1.016338587E0,2.012326479E0,9.728240013E0,9.986043047E0
3.221770691E0,-1.025915384E0,2.007538080E0,9.761758804E0,1.001871481E1
3.224284233E0,-1.021126986E0,1.988384485E0,9.780912399E0,1.003307633E1
3.226797826E0,-9.923965931E-1,2.002749681E0,9.766547203E0,1.001904694E1
3.229311472E0,-9.684545994E-1,1.978807688E0,9.771335602E0,1.001661538E1
3.231825118E0,-9.684545994E-1,1.997961283E0,9.795277596E0,1.004376507E1
3.234338764E0,-9.732429981E-1,1.978807688E0,9.785700798E0,1.003109276E1
3.236852410E0,-9.493009448E-1,1.983596087E0,9.800065994E0,1.004376021E1
3.239366056E0,-9.397241473E-1,1.978807688E0,9.785700798E0,1.002789616E1
3.241879701E0,-9.445125461E-1,1.978807688E0,9.785700798E0,1.002834602E1
3.244393347E0,-9.397241473E-1,1.978807688E0,9.800065994E0,1.004191490E1
3.246906993E0,-9.349357486E-1,1.983596087E0,9.809642792E0,1.005175855E1
3.249420639E0,-9.493009448E-1,1.969230890E0,9.814431190E0,1.005495411E1
3.251934285E0,-9.493009448E-1,1.983596087E0,9.790489197E0,1.003441600E1
3.254447931E0,-9.588778019E-1,2.026691675E0,9.776124001E0,1.002993152E1
3.256961576E0,-9.636662006E-1,2.055422068E0,9.747393608E0,1.000825132E1
3.259475222E0,-9.732429981E-1,2.069787264E0,9.728240013E0,9.993491632E0
3.261988660E0,-9.780313969E-1,2.060210466E0,9.737816811E0,1.000130436E1
3.264502097E0,-9.780313969E-1,2.060210466E0,9.742605209E0,1.000596666E1
3.267015535E0,-9.828197956E-1,2.084152699E0,9.733028412E0,1.000207325E1
3.269528972E0,-9.923965931E-1,2.103306293E0,9.728240013E0,1.000236982E1
3.272042410E0,-9.971849918E-1,2.103306293E0,9.737816811E0,1.001216018E1
3.274555847E0,-1.001973391E0,2.098517895E0,9.756970406E0,1.003026418E1
3.277069337E0,-1.016338587E0,2.093729496E0,9.737816811E0,1.001207888E1
3.279582879E0,-1.006761789E0,2.079364061E0,9.733028412E0,1.000345772E1
3.282096472E0,-1.011550188E0,2.060210466E0,9.723451614E0,9.990656247E0
3.284610066E0,-1.011550188E0,2.079364061E0,9.713874817E0,9.985306838E0
3.287123660E0,-1.021126986E0,2.098517895E0,9.694721222E0,9.971664718E0
3.289637254E0,-9.876081944E-1,2.103306293E0,9.675567627E0,9.950672149E0
3.292150847E0,-9.684545994E-1,2.108094692E0,9.661202431E0,9.935834135E0
3.294664441E0,-9.588778019E-1,2.108094692E0,9.656414032E0,9.930248830E0
3.297178035E0,-9.493009448E-1,2.112883091E0,9.656414032E0,9.930346379E0
3.299691629E0,-9.540894032E-1,2.117671490E0,9.608530045E0,9.885275350E0
3.302205222E0,-9.588778019E-1,2.146401882E0,9.594164848E0,9.877979895E0
3.304718816E0,-9.493009448E-1,2.127248287E0,9.584588051E0,9.863604091E0
3.307232410E0,-9.205705523E-1,2.112883091E0,9.584588051E0,9.857791497E0
3.309745951E0,-9.253589511E-1,2.103306293E0,9.594164848E0,9.865504837E0
3.312258816E0,-9.349357486E-1,2.084152699E0,9.598953247E0,9.867000596E0
3.314771472E0,-9.349357486E-1,2.079364061E0,9.603741646E0,9.870649085E0
3.317284129E0,-9.349357486E-1,2.103306293E0,9.613318443E0,9.885033824E0
3.319796785E0,-9.301473498E-1,2.060210466E0,9.618106842E0,9.880162979E0
3.322309493E0,-9.253589511E-1,2.050633669E0,9.670779228E0,9.929015989E0
3.324822254E0,-9.014169574E-1,2.060210466E0,9.675567627E0,9.933460052E0
3.327335066E0,-9.109937549E-1,2.069787264E0,9.670779228E0,9.931661483E0
3.329847931E0,-9.014169574E-1,2.064998865E0,9.661202431E0,9.920463964E0
3.332360847E0,-8.918401599E-1,2.060210466E0,9.632472038E0,9.890619981E0
3.334873816E0,-8.870517015E-1,2.060210466E0,9.613318443E0,9.871535817E0
3.337386837E0,-8.822633028E-1,2.064998865E0,9.598953247E0,9.858119105E0
3.339899910E0,-8.870517015E-1,2.069787264E0,9.565434456E0,9.826923037E0
3.342413035E0,-8.774749041E-1,2.060210466E0,9.541492462E0,9.800740165E0
3.344926212E0,-8.583213091E-1,2.069787264E0,9.512762070E0,9.773094545E0
3.347439441E0,-8.583213091E-1,2.069787264E0,9.512762070E0,9.773094545E0
3.349952722E0,-8.583213091E-1,2.084152699E0,9.484031677E0,9.748192899E0
3.352466004E0,-8.487445116E-1,2.074575663E0,9.474454880E0,9.735991305E0
3.354979285E0,-8.343793154E-1,2.088941097E0,9.450512886E0,9.714528170E0
3.357492618E0,-8.439561129E-1,2.088941097E0,9.436147690E0,9.701382378E0
3.360006004E0,-8.631097078E-1,2.084152699E0,9.421782494E0,9.688066690E0
3.362519441E0,-8.583213091E-1,2.098517895E0,9.421782494E0,9.690741880E0
3.365032931E0,-8.535329103E-1,2.098517895E0,9.407417297E0,9.676352411E0
3.367546420E0,-8.487445116E-1,2.103306293E0,9.421782494E0,9.690936486E0
3.370059910E0,-8.343793154E-1,2.112883091E0,9.412205696E0,9.682462490E0
3.372573399E0,-8.391677141E-1,2.088941097E0,9.426570892E0,9.691651879E0
3.375086889E0,-8.343793154E-1,2.084152699E0,9.416994095E0,9.680891441E0
3.377600379E0,-8.295909166E-1,2.074575663E0,9.407417297E0,9.669104688E0
3.380113868E0,-8.200140595E-1,2.064998865E0,9.383475304E0,9.642937942E0
3.382627358E0,-8.056488633E-1,2.041056871E0,9.364321709E0,9.617978182E0
3.385140847E0,-7.960720658E-1,2.031480074E0,9.340379715E0,9.591836907E0
3.387654337E0,-7.912836671E-1,2.041056871E0,9.311649323E0,9.565503442E0
3.390167826E0,-7.721300721E-1,2.036268473E0,9.316437721E0,9.567579942E0
3.392681316E0,-7.481880188E-1,2.026691675E0,9.292495728E0,9.540321866E0
3.395194806E0,-7.290344238E-1,2.050633669E0,9.278130531E0,9.529968300E0
3.397708295E0,-7.290344238E-1,2.021903276E0,9.282918930E0,9.528492426E0
3.400221785E0,-7.290344238E-1,2.026691675E0,9.244611740E0,9.492197668E0
3.402735274E0,-7.386112213E-1,2.031480074E0,9.235034943E0,9.484636430E0
3.405248712E0,-7.338228226E-1,2.050633669E0,9.230246544E0,9.483725304E0
3.407762045E0,-7.242460251E-1,2.064998865E0,9.225458145E0,9.481446652E0
3.410275379E0,-7.242460251E-1,2.079364061E0,9.235034943E0,9.493901074E0
3.412788608E0,-7.338228226E-1,2.084152699E0,9.249400139E0,9.509657793E0
3.415301837E0,-7.625532150E-1,2.103306293E0,9.287707329E0,9.553370724E0
3.417815066E0,-7.721300721E-1,2.103306293E0,9.311649323E0,9.577415900E0
3.420328295E0,-7.625532150E-1,2.093729496E0,9.345168114E0,9.607151382E0
3.422841524E0,-7.769184709E-1,2.098517895E0,9.359533310E0,9.623317694E0
3.425354754E0,-7.529764175E-1,2.088941097E0,9.378686905E0,9.637967444E0
3.427868035E0,-7.290344238E-1,2.064998865E0,9.407417297E0,9.658944648E0
3.430381368E0,-7.146692276E-1,2.045845270E0,9.431359291E0,9.677126281E0
3.432894701E0,-7.050924301E-1,2.026691675E0,9.440936089E0,9.681730667E0
3.435408035E0,-6.907271743E-1,2.002749681E0,9.431359291E0,9.666366866E0
3.437921368E0,-6.763619781E-1,1.964442492E0,9.431359291E0,9.657486107E0
3.440434754E0,-6.380547285E-1,1.954865694E0,9.412205696E0,9.634221805E0
3.442948191E0,-6.236895323E-1,1.940500498E0,9.373898506E0,9.592940322E0
3.445461681E0,-6.045359373E-1,1.916558504E0,9.326014519E0,9.540084224E0
3.447975222E0,-5.949591398E-1,1.892616391E0,9.302072525E0,9.511284164E0
3.450488816E0,-5.949591398E-1,1.883039594E0,9.287707329E0,9.495331585E0
3.453002410E0,-5.758054852E-1,1.897404790E0,9.263765335E0,9.473597262E0
3.455516056E0,-5.662286878E-1,1.906981707E0,9.254188538E0,9.465579731E0
3.458029754E0,-5.758054852E-1,1.940500498E0,9.258976936E0,9.477644647E0
3.460543451E0,-5.997475386E-1,1.954865694E0,9.239823341E0,9.463378486E0
3.463057149E0,-6.045359373E-1,1.974019289E0,9.239823341E0,9.467658170E0
3.465570847E0,-6.093243361E-1,1.993172884E0,9.244611740E0,9.476648169E0
3.468084545E0,-6.141127348E-1,1.993172884E0,9.278130531E0,9.509657131E0
3.470598243E0,-6.236895323E-1,1.997961283E0,9.297284126E0,9.529970097E0
3.473111941E0,-6.476315856E-1,2.026691675E0,9.335591316E0,9.574976295E0
3.475625639E0,-6.715735793E-1,2.031480074E0,9.369110107E0,9.610314593E0
3.478139233E0,-6.907271743E-1,2.064998865E0,9.412205696E0,9.660793984E0
3.480652774E0,-7.194576263E-1,2.079364061E0,9.440936089E0,9.693949061E0
3.483166316E0,-7.386112213E-1,2.108094692E0,9.464878082E0,9.724892127E0
3.485679649E0,-7.194576263E-1,2.098517895E0,9.527127266E0,9.782001358E0
3.488192826E0,-7.290344238E-1,2.103306293E0,9.541492462E0,9.797727643E0
3.490706004E0,-7.433996201E-1,2.108094692E0,9.560646057E0,9.818485589E0
3.493219181E0,-7.386112213E-1,2.127248287E0,9.560646057E0,9.822254570E0
3.495732358E0,-7.242460251E-1,2.132036686E0,9.565434456E0,9.826883996E0
3.498245535E0,-7.194576263E-1,2.136825085E0,9.551069260E0,9.813590817E0
3.500758764E0,-7.146692276E-1,2.146401882E0,9.560646057E0,9.824649926E0
3.503272045E0,-7.290344238E-1,2.141613483E0,9.546280861E0,9.810681820E0
3.505785379E0,-7.098808289E-1,2.132036686E0,9.541492462E0,9.802529756E0
3.508298764E0,-7.242460251E-1,2.151190281E0,9.536704063E0,9.803105443E0
3.510812201E0,-7.146692276E-1,2.141613483E0,9.527127266E0,9.790986383E0
3.513325691E0,-7.098808289E-1,2.146401882E0,9.498396873E0,9.763734685E0
3.515839233E0,-6.955155730E-1,2.155978680E0,9.479243279E0,9.746180745E0
3.518352826E0,-6.955155730E-1,2.151190281E0,9.484031677E0,9.749780428E0
3.520866472E0,-6.811503768E-1,2.155978680E0,9.469666481E0,9.735850921E0
3.523380170E0,-6.859387755E-1,2.141613483E0,9.450512886E0,9.714381819E0
3.525893868E0,-6.907271743E-1,2.141613483E0,9.426570892E0,9.691431841E0
3.528407566E0,-6.907271743E-1,2.132036686E0,9.416994095E0,9.680003215E0
3.530921264E0,-6.907271743E-1,2.127248287E0,9.378686905E0,9.641683326E0
3.533434962E0,-6.907271743E-1,2.136825085E0,9.345168114E0,9.611206612E0
3.535948660E0,-6.859387755E-1,2.151190281E0,9.306860924E0,9.576836215E0
3.538462358E0,-6.907271743E-1,2.160767078E0,9.287707329E0,9.560728310E0
3.540976056E0,-7.098808289E-1,2.151190281E0,9.282918930E0,9.555319685E0
3.543489754E0,-7.050924301E-1,2.165555477E0,9.258976936E0,9.534958824E0
3.546003451E0,-7.050924301E-1,2.165555477E0,9.263765335E0,9.539608694E0
3.548517149E0,-7.194576263E-1,2.184709072E0,9.254188538E0,9.535752644E0
3.551030847E0,-7.194576263E-1,2.184709072E0,9.273342133E0,9.554341804E0
3.553544545E0,-7.242460251E-1,2.203862667E0,9.287707329E0,9.573037678E0
3.556058243E0,-7.242460251E-1,2.203862667E0,9.306860924E0,9.591621511E0
3.558571941E0,-7.242460251E-1,2.194285870E0,9.335591316E0,9.617311891E0
3.561085639E0,-7.290344238E-1,2.175132275E0,9.369110107E0,9.645875585E0
3.563599337E0,-7.050924301E-1,2.170343876E0,9.402628899E0,9.675586705E0
3.566113035E0,-7.242460251E-1,2.165555477E0,9.421782494E0,9.694542185E0
3.568626629E0,-7.098808289E-1,2.165555477E0,9.431359291E0,9.702788228E0
3.571140222E0,-7.098808289E-1,2.151190281E0,9.440936089E0,9.708904400E0
3.573653816E0,-7.050924301E-1,2.155978680E0,9.402628899E0,9.672374559E0
3.576167410E0,-6.907271743E-1,2.155978680E0,9.407417297E0,9.675993401E0
3.578681004E0,-7.050924301E-1,2.151190281E0,9.393052101E0,9.661997865E0
3.581194649E0,-6.955155730E-1,2.146401882E0,9.373898506E0,9.641615848E0
3.583708295E0,-6.859387755E-1,2.136825085E0,9.359533310E0,9.624832322E0
3.586221941E0,-7.098808289E-1,2.136825085E0,9.335591316E0,9.603292011E0
3.588735535E0,-6.859387755E-1,2.160767078E0,9.311649323E0,9.583644373E0
3.591249129E0,-6.811503768E-1,2.175132275E0,9.306860924E0,9.581900986E0
3.593762722E0,-6.811503768E-1,2.160767078E0,9.268553734E0,9.541434301E0
3.596276316E0,-6.811503768E-1,2.170343876E0,9.244611740E0,9.520357378E0
3.598789910E0,-6.859387755E-1,2.175132275E0,9.239823341E0,9.517144939E0
3.601303504E0,-6.907271743E-1,2.170343876E0,9.220669746E0,9.497802227E0
3.603817097E0,-6.811503768E-1,2.179920673E0,9.206304550E0,9.485360481E0
3.606330691E0,-6.763619781E-1,2.189497471E0,9.187150002E0,9.468637170E0
3.608844285E0,-6.811503768E-1,2.184709072E0,9.177573204E0,9.458581790E0
3.611357879E0,-6.859387755E-1,2.179920673E0,9.206304550E0,9.485705541E0
3.613871472E0,-7.194576263E-1,2.175132275E0,9.211092949E0,9.491736037E0
3.616385066E0,-7.050924301E-1,2.155978680E0,9.249400139E0,9.523486879E0
3.618898660E0,-7.050924301E-1,2.146401882E0,9.316437721E0,9.586459627E0
3.621412254E0,-6.859387755E-1,2.141613483E0,9.388263702E0,9.653834247E0
3.623925899E0,-6.667851806E-1,2.136825085E0,9.440936089E0,9.702674793E0
3.626439597E0,-6.955155730E-1,2.136825085E0,9.493608475E0,9.755939997E0
3.628953295E0,-6.907271743E-1,2.122459888E0,9.546280861E0,9.803745115E0
3.631466993E0,-7.003039718E-1,2.103306293E0,9.565434456E0,9.818954086E0
3.633980743E0,-7.146692276E-1,2.108094692E0,9.565434456E0,9.821015816E0
3.636494545E0,-7.194576263E-1,2.132036686E0,9.589376450E0,9.849839613E0
3.639008399E0,-7.290344238E-1,2.117671490E0,9.589376450E0,9.847444563E0
3.641522254E0,-7.338228226E-1,2.127248287E0,9.575011253E0,9.835879305E0
3.644036108E0,-7.433996201E-1,2.127248287E0,9.565434456E0,9.827276561E0
3.646549962E0,-7.386112213E-1,2.122459888E0,9.531915665E0,9.793252716E0
3.649063816E0,-7.242460251E-1,2.132036686E0,9.507973671E0,9.770960857E0
3.651577670E0,-7.194576263E-1,2.155978680E0,9.460089684E0,9.729293919E0
3.654091524E0,-7.050924301E-1,2.189497471E0,9.416994095E0,9.693855388E0
3.656605379E0,-6.907271743E-1,2.199074268E0,9.354744911E0,9.634536004E0
3.659119233E0,-6.955155730E-1,2.232593060E0,9.335591316E0,9.624005346E0
3.661633087E0,-7.003039718E-1,2.251746655E0,9.302072525E0,9.596319185E0
3.664146941E0,-7.098808289E-1,2.242169857E0,9.254188538E0,9.548364360E0
3.666660795E0,-7.146692276E-1,2.270900249E0,9.215881348E0,9.518414209E0
3.669174649E0,-7.003039718E-1,2.266111851E0,9.211092949E0,9.511567793E0
3.671688504E0,-6.763619781E-1,2.266111851E0,9.172784805E0,9.472735061E0
3.674202358E0,-6.859387755E-1,2.261323452E0,9.177573204E0,9.476916464E0
3.676716212E0,-6.859387755E-1,2.237381458E0,9.177573204E0,9.471232111E0
3.679230014E0,-6.811503768E-1,2.227804661E0,9.187150002E0,9.477911405E0
3.681743712E0,-6.763619781E-1,2.242169857E0,9.172784805E0,9.467036087E0
3.684257410E0,-6.667851806E-1,2.251746655E0,9.182361603E0,9.477907474E0
3.686771108E0,-6.715735793E-1,2.246958256E0,9.206304550E0,9.500309255E0
3.689284806E0,-6.811503768E-1,2.251746655E0,9.235034943E0,9.529963233E0
3.691798556E0,-6.667851806E-1,2.266111851E0,9.268553734E0,9.564828996E0
3.694312306E0,-6.572083831E-1,2.242169857E0,9.302072525E0,9.591027150E0
3.696826056E0,-6.476315856E-1,2.237381458E0,9.302072525E0,9.589257308E0
3.699339806E0,-6.380547285E-1,2.223016262E0,9.292495728E0,9.575979949E0
3.701853556E0,-6.284779310E-1,2.223016262E0,9.302072525E0,9.584640790E0
3.704367306E0,-6.332663298E-1,2.218227863E0,9.321226120E0,9.602438101E0
3.706881056E0,-6.332663298E-1,2.218227863E0,9.326014519E0,9.607086338E0
3.709394754E0,-6.284779310E-1,2.218227863E0,9.330802917E0,9.611420418E0
3.711908451E0,-6.284779310E-1,2.227804661E0,9.326014519E0,9.608987716E0
3.714422149E0,-6.284779310E-1,2.227804661E0,9.326014519E0,9.608987716E0
3.716935847E0,-6.428431273E-1,2.227804661E0,9.321226120E0,9.605291108E0
3.719449545E0,-6.189011335E-1,2.232593060E0,9.306860924E0,9.590889981E0
3.721962826E0,-6.284779310E-1,2.232593060E0,9.297284126E0,9.582220432E0
3.724476108E0,-6.236895323E-1,2.232593060E0,9.273342133E0,9.558678502E0
3.726989389E0,-6.141127348E-1,2.246958256E0,9.263765335E0,9.552136098E0
3.729502722E0,-6.236895323E-1,2.232593060E0,9.258976936E0,9.544742758E0
3.732016108E0,-6.284779310E-1,2.242169857E0,9.235034943E0,9.524084238E0
3.734529545E0,-6.236895323E-1,2.251746655E0,9.235034943E0,9.526028659E0
3.737043035E0,-6.284779310E-1,2.242169857E0,9.230246544E0,9.519441236E0
3.739556629E0,-6.284779310E-1,2.266111851E0,9.230246544E0,9.525108855E0
3.742070326E0,-6.284779310E-1,2.266111851E0,9.239823341E0,9.534389483E0
3.744584129E0,-5.997475386E-1,2.261323452E0,9.258976936E0,9.549970407E0
3.747097983E0,-6.093243361E-1,2.256535053E0,9.268553734E0,9.558729775E0
3.749611889E0,-6.045359373E-1,2.246958256E0,9.287707329E0,9.574747648E0
3.752125847E0,-6.045359373E-1,2.223016262E0,9.292495728E0,9.573804983E0
3.754639806E0,-5.997475386E-1,2.213439465E0,9.306860924E0,9.585231955E0
3.757153764E0,-5.853823423E-1,2.194285870E0,9.311649323E0,9.584590553E0
3.759667722E0,-5.758054852E-1,2.175132275E0,9.297284126E0,9.565680556E0
3.762181681E0,-5.710170865E-1,2.160767078E0,9.306860924E0,9.571448957E0
3.764695639E0,-5.710170865E-1,2.175132275E0,9.302072525E0,9.570047763E0
3.767209597E0,-5.853823423E-1,2.165555477E0,9.287707329E0,9.554779455E0
3.769723556E0,-5.949591398E-1,2.179920673E0,9.273342133E0,9.544679399E0
3.772237514E0,-5.758054852E-1,2.194285870E0,9.249400139E0,9.523541640E0
3.774751472E0,-5.853823423E-1,2.208651066E0,9.254188538E0,9.532094078E0
3.777265431E0,-5.853823423E-1,2.213439465E0,9.258976936E0,9.537853042E0
3.779779389E0,-5.949591398E-1,2.223016262E0,9.258976936E0,9.540672491E0
3.782293347E0,-6.093243361E-1,2.213439465E0,9.263765335E0,9.544000136E0
3.784807306E0,-6.189011335E-1,2.223016262E0,9.278130531E0,9.560781666E0
3.787321264E0,-6.332663298E-1,2.237381458E0,9.258976936E0,9.546494432E0
3.789834962E0,-6.572083831E-1,2.232593060E0,9.249400139E0,9.537703998E0
3.792348399E0,-6.572083831E-1,2.237381458E0,9.268553734E0,9.557399592E0
3.794861837E0,-6.763619781E-1,2.232593060E0,9.287707329E0,9.576191556E0
3.797375274E0,-6.811503768E-1,2.242169857E0,9.297284126E0,9.588054215E0
3.799888712E0,-6.907271743E-1,2.242169857E0,9.345168114E0,9.635174974E0
3.802402149E0,-6.955155730E-1,2.242169857E0,9.369110107E0,9.658741729E0
3.804915639E0,-7.050924301E-1,2.232593060E0,9.397840500E0,9.685093348E0
3.807429129E0,-7.290344238E-1,2.237381458E0,9.412205696E0,9.701906155E0
3.809942618E0,-7.290344238E-1,2.242169857E0,9.426570892E0,9.716946827E0
3.812456108E0,-7.194576263E-1,2.242169857E0,9.416994095E0,9.706941986E0
3.814969597E0,-7.003039718E-1,2.223016262E0,9.436147690E0,9.719727886E0
3.817483087E0,-6.763619781E-1,2.223016262E0,9.445724487E0,9.727331490E0
3.819996368E0,-6.763619781E-1,2.189497471E0,9.445724487E0,9.719726117E0
3.822509545E0,-6.859387755E-1,2.189497471E0,9.455301285E0,9.729703673E0
3.825022722E0,-6.907271743E-1,2.179920673E0,9.445724487E0,9.718583707E0
3.827535899E0,-6.763619781E-1,2.141613483E0,9.445724487E0,9.709051701E0
3.830049076E0,-6.763619781E-1,2.136825085E0,9.431359291E0,9.694020066E0
3.832562254E0,-6.619967818E-1,2.175132275E0,9.445724487E0,9.715510858E0
3.835075431E0,-6.667851806E-1,2.155978680E0,9.436147690E0,9.702253850E0
3.837588608E0,-6.524199843E-1,2.155978680E0,9.421782494E0,9.687305160E0
3.840101681E0,-6.524199843E-1,2.170343876E0,9.436147690E0,9.704479770E0
3.842614701E0,-6.476315856E-1,2.170343876E0,9.450512886E0,9.718128061E0
3.845127618E0,-6.763619781E-1,2.170343876E0,9.440936089E0,9.710774032E0
3.847640483E0,-6.955155730E-1,2.184709072E0,9.464878082E0,9.738614519E0
3.850152931E0,-6.907271743E-1,2.218227863E0,9.479243279E0,9.759799794E0
3.852665379E0,-6.907271743E-1,2.223016262E0,9.488820076E0,9.770189955E0
3.855177826E0,-6.955155730E-1,2.223016262E0,9.522338867E0,9.803085265E0
3.857690274E0,-7.003039718E-1,2.232593060E0,9.527127266E0,9.810252360E0
3.860202774E0,-7.098808289E-1,2.266111851E0,9.531915665E0,9.823268802E0
3.862715326E0,-7.146692276E-1,2.285265446E0,9.517550468E0,9.814120296E0
3.865227931E0,-7.242460251E-1,2.275688648E0,9.536704063E0,9.831175694E0
3.867740587E0,-7.338228226E-1,2.299630642E0,9.531915665E0,9.832813090E0
3.870253295E0,-7.194576263E-1,2.299630642E0,9.527127266E0,9.827109153E0
3.872766056E0,-7.098808289E-1,2.304419041E0,9.493608475E0,9.795043633E0
3.875278868E0,-7.098808289E-1,2.304419041E0,9.493608475E0,9.795043633E0
3.877791733E0,-6.907271743E-1,2.294842243E0,9.479243279E0,9.777497537E0
3.880304649E0,-6.811503768E-1,2.275688648E0,9.484031677E0,9.776992458E0
3.882817618E0,-6.667851806E-1,2.266111851E0,9.450512886E0,9.741255525E0
3.885330587E0,-6.476315856E-1,2.256535053E0,9.460089684E0,9.747034110E0
3.887843556E0,-6.524199843E-1,2.251746655E0,9.450512886E0,9.736950685E0
3.890356576E0,-6.380547285E-1,2.246958256E0,9.440936089E0,9.725595584E0
3.892869649E0,-6.093243361E-1,2.208651066E0,9.416994095E0,9.691707458E0
3.895382826E0,-6.141127348E-1,2.208651066E0,9.407417297E0,9.682704900E0
3.897896108E0,-6.189011335E-1,2.194285870E0,9.373898506E0,9.647170689E0
3.900409545E0,-6.093243361E-1,2.199074268E0,9.359533310E0,9.633694388E0
3.902923139E0,-6.141127348E-1,2.194285870E0,9.345168114E0,9.618949631E0
3.905436889E0,-6.093243361E-1,2.170343876E0,9.326014519E0,9.594593034E0
3.907950795E0,-6.045359373E-1,2.175132275E0,9.306860924E0,9.576759596E0
3.910464806E0,-6.045359373E-1,2.170343876E0,9.316437721E0,9.584981380E0
3.912978920E0,-6.141127348E-1,2.175132275E0,9.335591316E0,9.605290214E0
3.915493087E0,-6.236895323E-1,2.189497471E0,9.326014519E0,9.599866385E0
3.918007306E0,-6.189011335E-1,2.189497471E0,9.326014519E0,9.599556479E0
3.920521524E0,-6.332663298E-1,2.179920673E0,9.354744911E0,9.626231492E0
3.923035743E0,-6.284779310E-1,2.194285870E0,9.359533310E0,9.633833026E0
3.925549962E0,-6.476315856E-1,2.194285870E0,9.373898506E0,9.649056449E0
3.928063764E0,-6.428431273E-1,2.218227863E0,9.378686905E0,9.658858639E0
3.930577566E0,-6.236895323E-1,2.208651066E0,9.388263702E0,9.664710213E0
3.933091212E0,-6.428431273E-1,2.223016262E0,9.402628899E0,9.683206018E0
3.935604806E0,-6.524199843E-1,2.232593060E0,9.393052101E0,9.676753142E0
3.938118399E0,-6.619967818E-1,2.227804661E0,9.402628899E0,9.685596706E0
3.940631993E0,-6.619967818E-1,2.237381458E0,9.402628899E0,9.687803969E0
3.943145587E0,-6.667851806E-1,2.270900249E0,9.412205696E0,9.705215427E0
3.945659181E0,-6.667851806E-1,2.290053844E0,9.412205696E0,9.709714988E0
3.948172774E0,-6.715735793E-1,2.299630642E0,9.421782494E0,9.721589249E0
3.950686368E0,-6.715735793E-1,2.313995838E0,9.416994095E0,9.720358306E0
3.953199962E0,-6.811503768E-1,2.318784237E0,9.407417297E0,9.712889703E0
3.955713556E0,-6.667851806E-1,2.323572636E0,9.407417297E0,9.713037243E0
3.958227201E0,-6.667851806E-1,2.333149672E0,9.393052101E0,9.701423485E0
3.960740899E0,-6.763619781E-1,2.337938070E0,9.407417297E0,9.717145679E0
3.963254649E0,-6.715735793E-1,2.328361034E0,9.378686905E0,9.686694185E0
3.965768451E0,-6.715735793E-1,2.318784237E0,9.383475304E0,9.689034017E0
3.968282306E0,-6.859387755E-1,2.304419041E0,9.383475304E0,9.686612818E0
3.970796212E0,-6.619967818E-1,2.285265446E0,9.402628899E0,9.698974590E0
3.973310170E0,-6.715735793E-1,2.299630642E0,9.416994095E0,9.716948592E0
3.975824181E0,-6.715735793E-1,2.285265446E0,9.455301285E0,9.750701083E0
3.978338243E0,-6.380547285E-1,2.261323452E0,9.488820076E0,9.775397896E0
3.980852358E0,-6.236895323E-1,2.251746655E0,9.527127266E0,9.809460004E0
3.983366472E0,-6.332663298E-1,2.251746655E0,9.541492462E0,9.824025023E0
3.985880483E0,-6.332663298E-1,2.237381458E0,9.522338867E0,9.802134438E0
3.988393920E0,-6.332663298E-1,2.251746655E0,9.522338867E0,9.805423333E0
3.990907254E0,-6.332663298E-1,2.251746655E0,9.512762070E0,9.796123286E0
3.993420587E0,-6.428431273E-1,2.246958256E0,9.522338867E0,9.804948046E0
3.995933764E0,-6.572083831E-1,2.261323452E0,9.522338867E0,9.809202012E0
3.998446941E0,-6.572083831E-1,2.280477047E0,9.498396873E0,9.790405588E0
4.000959910E0,-6.763619781E-1,2.275688648E0,9.474454880E0,9.767370148E0
4.003472618E0,-6.811503768E-1,2.304419041E0,9.464878082E0,9.765153868E0
4.005985326E0,-6.763619781E-1,2.313995838E0,9.455301285E0,9.757805319E0
4.008498035E0,-6.859387755E-1,2.313995838E0,9.436147690E0,9.739916425E0
4.011010743E0,-7.146692276E-1,2.342726469E0,9.431359291E0,9.744211486E0
4.013523451E0,-7.050924301E-1,2.357091665E0,9.431359291E0,9.746977713E0
4.016036160E0,-7.194576263E-1,2.361880064E0,9.416994095E0,9.735290160E0
4.018548868E0,-7.098808289E-1,2.395398855E0,9.436147690E0,9.761288321E0
4.021061576E0,-7.098808289E-1,2.400187254E0,9.421782494E0,9.748580153E0
4.023574337E0,-6.955155730E-1,2.419340849E0,9.407417297E0,9.738400909E0
4.026087149E0,-7.050924301E-1,2.419340849E0,9.416994095E0,9.748340539E0
4.028600066E0,-7.098808289E-1,2.404975653E0,9.412205696E0,9.740505877E0
4.031113139E0,-7.050924301E-1,2.424129248E0,9.407417297E0,9.740280189E0
4.033626368E0,-6.907271743E-1,2.395398855E0,9.407417297E0,9.732139534E0
4.036139701E0,-7.003039718E-1,2.371456861E0,9.369110107E0,9.689915248E0
4.038653139E0,-7.098808289E-1,2.385822058E0,9.369110107E0,9.694137501E0
4.041166681E0,-7.242460251E-1,2.366668463E0,9.388263702E0,9.709024012E0
4.043680326E0,-7.577648163E-1,2.361880064E0,9.407417297E0,9.728935459E0
4.046194076E0,-7.529764175E-1,2.376245260E0,9.431359291E0,9.755206461E0
4.048707879E0,-7.481880188E-1,2.371456861E0,9.455301285E0,9.776825423E0
4.051221681E0,-7.481880188E-1,2.400187254E0,9.484031677E0,9.811602368E0
4.053735483E0,-7.529764175E-1,2.400187254E0,9.469666481E0,9.798084282E0
4.056248556E0,-7.721300721E-1,2.390610456E0,9.484031677E0,9.811119205E0
4.058761368E0,-7.577648163E-1,2.395398855E0,9.507973671E0,9.834312712E0
4.061273972E0,-7.577648163E-1,2.385822058E0,9.536704063E0,9.859770728E0
4.063786576E0,-7.625532150E-1,2.390610456E0,9.527127266E0,9.852038353E0
4.066299181E0,-7.433996201E-1,2.366668463E0,9.512762070E0,9.830890336E0
4.068811785E0,-7.386112213E-1,2.366668463E0,9.512762070E0,9.830529403E0
4.071324389E0,-7.529764175E-1,2.352303267E0,9.503185272E0,9.818901897E0
4.073836993E0,-7.673416734E-1,2.323572636E0,9.503185272E0,9.813171422E0
4.076349649E0,-7.529764175E-1,2.318784237E0,9.498396873E0,9.806287625E0
4.078862358E0,-7.529764175E-1,2.313995838E0,9.488820076E0,9.795879576E0
4.081375118E0,-7.625532150E-1,2.313995838E0,9.484031677E0,9.791982486E0
4.083887931E0,-7.577648163E-1,2.304419041E0,9.484031677E0,9.789351944E0
4.086400847E0,-7.673416734E-1,2.299630642E0,9.493608475E0,9.798250671E0
4.088913868E0,-7.577648163E-1,2.304419041E0,9.474454880E0,9.780074126E0
4.091426941E0,-7.625532150E-1,2.313995838E0,9.479243279E0,9.787344751E0
4.093940066E0,-7.625532150E-1,2.323572636E0,9.503185272E0,9.812798149E0
4.096453243E0,-7.433996201E-1,2.304419041E0,9.493608475E0,9.797529892E0
4.098966472E0,-7.481880188E-1,2.299630642E0,9.522338867E0,9.824613168E0
4.101479701E0,-7.481880188E-1,2.285265446E0,9.555857658E0,9.853762685E0
4.103992931E0,-7.290344238E-1,2.270900249E0,9.575011253E0,9.867589353E0
4.106506160E0,-7.098808289E-1,2.251746655E0,9.608530045E0,9.894349064E0
4.109019389E0,-7.050924301E-1,2.256535053E0,9.637260437E0,9.922998262E0
4.111532618E0,-7.194576263E-1,2.237381458E0,9.670779228E0,9.952259339E0
4.114045847E0,-7.146692276E-1,2.223016262E0,9.680356026E0,9.958004127E0
4.116559076E0,-7.003039718E-1,2.227804661E0,9.685144424E0,9.962708557E0
4.119072358E0,-7.003039718E-1,2.223016262E0,9.699509621E0,9.975605938E0
4.121585691E0,-6.955155730E-1,2.223016262E0,9.713874817E0,9.989239569E0
4.124099076E0,-7.003039718E-1,2.223016262E0,9.713874817E0,9.989574111E0
4.126612514E0,-7.098808289E-1,2.213439465E0,9.699509621E0,9.974153194E0
4.129126004E0,-7.003039718E-1,2.203862667E0,9.670779228E0,9.943410239E0
4.131639545E0,-6.859387755E-1,2.194285870E0,9.637260437E0,9.907683443E0
4.134153139E0,-6.859387755E-1,2.170343876E0,9.603741646E0,9.869790177E0
4.136666785E0,-6.763619781E-1,2.155978680E0,9.551069260E0,9.814715156E0
4.139180483E0,-6.476315856E-1,2.136825085E0,9.512762070E0,9.771289081E0
4.141694233E0,-6.572083831E-1,2.136825085E0,9.479243279E0,9.739301691E0
4.144208035E0,-6.332663298E-1,2.146401882E0,9.436147690E0,9.697883816E0
4.146721889E0,-6.236895323E-1,2.146401882E0,9.402628899E0,9.664650013E0
4.149235795E0,-6.428431273E-1,2.151190281E0,9.373898506E0,9.639026928E0
4.151749701E0,-6.428431273E-1,2.146401882E0,9.354744911E0,9.619331613E0
4.154263608E0,-6.332663298E-1,2.170343876E0,9.326014519E0,9.596143266E0
4.156777514E0,-6.428431273E-1,2.175132275E0,9.306860924E0,9.579254039E0
4.159291420E0,-6.380547285E-1,2.199074268E0,9.268553734E0,9.547205339E0
4.161805326E0,-6.093243361E-1,2.203862667E0,9.244611740E0,9.523189226E0
4.164319076E0,-6.141127348E-1,2.194285870E0,9.225458145E0,9.502689247E0
4.166832826E0,-5.949591398E-1,2.194285870E0,9.187150002E0,9.464279793E0
4.169346576E0,-5.901707411E-1,2.175132275E0,9.158419609E0,9.431656888E0
4.171860326E0,-5.949591398E-1,2.175132275E0,9.172784805E0,9.445906938E0
4.174374076E0,-5.853823423E-1,2.170343876E0,9.191938400E0,9.462811241E0
4.176887826E0,-5.853823423E-1,2.194285870E0,9.191938400E0,9.468331137E0
4.179401576E0,-5.901707411E-1,2.184709072E0,9.211092949E0,9.485013893E0
4.181915326E0,-6.045359373E-1,2.203862667E0,9.230246544E0,9.508939248E0
4.184429076E0,-5.949591398E-1,2.203862667E0,9.278130531E0,9.554825649E0
4.186942826E0,-5.901707411E-1,2.203862667E0,9.306860924E0,9.582430402E0
4.189456576E0,-5.997475386E-1,2.208651066E0,9.330802917E0,9.607378400E0
4.191970326E0,-5.997475386E-1,2.199074268E0,9.340379715E0,9.614484800E0
4.194484076E0,-5.901707411E-1,2.208651066E0,9.349956512E0,9.625389749E0
4.196997826E0,-5.949591398E-1,2.179920673E0,9.369110107E0,9.637751539E0
4.199511576E0,-6.093243361E-1,2.189497471E0,9.373898506E0,9.645472955E0
4.202025326E0,-5.901707411E-1,2.175132275E0,9.359533310E0,9.627064230E0
4.204539076E0,-6.045359373E-1,2.165555477E0,9.359533310E0,9.625796487E0
4.207052826E0,-6.093243361E-1,2.146401882E0,9.335591316E0,9.598519803E0
4.209566576E0,-6.045359373E-1,2.170343876E0,9.326014519E0,9.594290127E0
4.212080222E0,-5.758054852E-1,2.189497471E0,9.311649323E0,9.582915226E0
4.214593868E0,-5.949591398E-1,2.179920673E0,9.302072525E0,9.572595457E0
4.217107514E0,-6.045359373E-1,2.175132275E0,9.282918930E0,9.553494019E0
4.219621160E0,-6.093243361E-1,2.175132275E0,9.278130531E0,9.549145654E0
4.222134754E0,-6.141127348E-1,2.165555477E0,9.278130531E0,9.547275587E0
4.224648295E0,-5.901707411E-1,2.155978680E0,9.297284126E0,9.562219287E0
