"Time (s)","Acceleration x (m/s^2)","Acceleration y (m/s^2)","Acceleration z (m/s^2)","Absolute acceleration (m/s^2)"
3.264667700E-2,-2.012326479E0,3.233369350E0,8.689156532E0,9.487126881E0
3.515589500E-2,-1.921346903E0,3.295618534E0,8.602965355E0,9.410828249E0
3.766683300E-2,-1.844732404E0,3.333925962E0,8.717886925E0,9.514181646E0
4.017954100E-2,-1.792060018E0,3.405751944E0,8.828020096E0,9.630397926E0
4.269396800E-2,-1.725022316E0,3.448847532E0,8.847173691E0,9.651048316E0
4.521001000E-2,-1.686715126E0,3.472789526E0,8.837596893E0,9.644085952E0
4.772751000E-2,-1.681926727E0,3.477577925E0,8.799289703E0,9.609886837E0
5.024620800E-2,-1.681926727E0,3.482366323E0,8.799289703E0,9.611620676E0
5.276584300E-2,-1.672349930E0,3.463212729E0,8.813654900E0,9.616189962E0
5.528615600E-2,-1.667561531E0,3.434482336E0,8.856750488E0,9.644607799E0
5.780683300E-2,-1.657984734E0,3.400963545E0,8.909422874E0,9.679529036E0
6.032756200E-2,-1.643619418E0,3.353079557E0,8.914211273E0,9.664770558E0
6.284329100E-2,-1.629254222E0,3.319560766E0,8.923788071E0,9.659603850E0
6.535678100E-2,-1.624465823E0,3.276464939E0,8.918999672E0,9.639640390E0
6.787027000E-2,-1.600523829E0,3.223792553E0,8.938153267E0,9.635616160E0
7.038376000E-2,-1.586158633E0,3.195062160E0,8.957306862E0,9.641455680E0
7.289725000E-2,-1.624465823E0,3.219004154E0,8.952518463E0,9.651345180E0
7.541073900E-2,-1.681926727E0,3.286041737E0,8.962095261E0,9.692579598E0
7.792422900E-2,-1.744175911E0,3.300406933E0,8.942941666E0,9.690770927E0
8.043771800E-2,-1.772906303E0,3.314772367E0,8.981248856E0,9.736207866E0
8.295120800E-2,-1.801636815E0,3.343502760E0,8.971672058E0,9.742474297E0
8.546469700E-2,-1.806425214E0,3.381809950E0,8.947730064E0,9.734561310E0
8.797818700E-2,-1.830367208E0,3.415328741E0,8.957306862E0,9.759511296E0
9.049172900E-2,-1.873462796E0,3.429693937E0,8.990825653E0,9.803448846E0
9.300532200E-2,-1.911770105E0,3.453635931E0,9.005190849E0,9.832391790E0
9.551891600E-2,-1.954865694E0,3.458424330E0,9.057863235E0,9.890757560E0
9.803256200E-2,-1.983596087E0,3.463212729E0,9.096170425E0,9.933217618E0
1.005462600E-1,-2.012326479E0,3.477577925E0,9.110535622E0,9.957151470E0
1.030600100E-1,-2.026691675E0,3.491943121E0,9.124900818E0,9.978224333E0
1.055737600E-1,-1.830367208E0,3.429693937E0,9.139266014E0,9.931728344E0
1.080875100E-1,-1.341950059E0,3.290830135E0,9.067440033E0,9.739038027E0
1.106012600E-1,-1.313219666E0,3.257311344E0,9.144054413E0,9.795323077E0
1.131149580E-1,-1.499967337E0,3.219004154E0,9.354744911E0,1.000615521E1
1.156281870E-1,-1.686715126E0,3.151966572E0,9.407417297E0,1.006376676E1
1.181412080E-1,-1.806425214E0,3.118447781E0,9.287707329E0,9.962399111E0
1.206542290E-1,-1.883039594E0,3.099294186E0,9.086593628E0,9.783539560E0
1.231672500E-1,-1.921346903E0,3.084928989E0,8.851962090E0,9.568991254E0
1.256802700E-1,-1.902193308E0,3.060986757E0,8.693944931E0,9.411304786E0
1.281933430E-1,-1.916558504E0,3.060986757E0,8.646060944E0,9.370016343E0
1.307064680E-1,-1.906981707E0,3.041833162E0,8.679579735E0,9.392786199E0
1.332196450E-1,-1.935712099E0,3.041833162E0,8.751405716E0,9.465032083E0
1.357328750E-1,-1.940500498E0,3.051409960E0,8.828020096E0,9.539946737E0
1.382461560E-1,-1.921346903E0,3.051409960E0,8.914211273E0,9.615915936E0
1.407594890E-1,-1.926135302E0,3.070563793E0,8.933364868E0,9.640714034E0
1.432728750E-1,-1.945288897E0,3.108870983E0,8.962095261E0,9.683407414E0
1.457863120E-1,-1.945288897E0,3.118447781E0,8.928576469E0,9.655482547E0
1.482998020E-1,-1.954865694E0,3.156754971E0,8.880692482E0,9.625658460E0
1.508133430E-1,-1.969230890E0,3.180696964E0,8.847173691E0,9.605580971E0
1.533268850E-1,-1.983596087E0,3.214215755E0,8.818443298E0,9.593267356E0
1.558404270E-1,-1.993172884E0,3.238157749E0,8.780136108E0,9.568134292E0
1.583539680E-1,-1.978807688E0,3.266888142E0,8.770559311E0,9.566135511E0
1.608675620E-1,-1.988384485E0,3.333925962E0,8.717886925E0,9.543075375E0
1.633812080E-1,-1.988384485E0,3.362656355E0,8.684368134E0,9.522572158E0
1.658949060E-1,-2.031480074E0,3.372233152E0,8.631695747E0,9.487098566E0
1.684086560E-1,-2.084152699E0,3.429693937E0,8.545504570E0,9.440982011E0
1.709224580E-1,-2.155978680E0,3.472789526E0,8.468890190E0,9.403755219E0
1.734362600E-1,-2.218227863E0,3.501519918E0,8.382699013E0,9.351514280E0
1.759500620E-1,-2.280477047E0,3.496731520E0,8.306084633E0,9.296168502E0
1.784638640E-1,-2.390610456E0,3.506308317E0,8.296507835E0,9.318865737E0
1.809776660E-1,-2.510320425E0,3.477577925E0,8.282142639E0,9.326797068E0
1.834914680E-1,-2.577358246E0,3.444059134E0,8.344391823E0,9.387928085E0
1.860052700E-1,-2.610877037E0,3.434482336E0,8.449736595E0,9.487380900E0
1.885190720E-1,-2.577358246E0,3.410540342E0,8.579023361E0,9.585103170E0
1.910328750E-1,-2.495955229E0,3.420117140E0,8.689156532E0,9.665838556E0
1.935466770E-1,-2.361880064E0,3.439270735E0,8.784924507E0,9.725325661E0
1.960603750E-1,-2.232593060E0,3.448847532E0,8.866327286E0,9.771938426E0
1.985740720E-1,-2.132036686E0,3.420117140E0,8.952518463E0,9.817859671E0
2.010876660E-1,-2.036268473E0,3.386598349E0,8.990825653E0,9.820915619E0
2.036009470E-1,-1.978807688E0,3.348291159E0,9.009979248E0,9.813585461E0
2.061141250E-1,-1.921346903E0,3.290830135E0,9.033921242E0,9.804737115E0
2.086273020E-1,-1.863885999E0,3.214215755E0,9.048286438E0,9.781448840E0
2.111404790E-1,-1.801636815E0,3.147178173E0,9.033921242E0,9.734595968E0
2.136536560E-1,-1.768117905E0,3.060986757E0,9.048286438E0,9.714286815E0
2.161668330E-1,-1.734599113E0,2.965218782E0,9.043498039E0,9.673996759E0
2.186800620E-1,-1.691503525E0,2.859874010E0,9.014767647E0,9.607606323E0
2.211933430E-1,-1.677138329E0,2.792836189E0,8.971672058E0,9.544821972E0
2.237066770E-1,-1.638831019E0,2.697068214E0,8.942941666E0,9.483467177E0
2.262200620E-1,-1.629254222E0,2.615665436E0,8.885480881E0,9.404676787E0
2.287335000E-1,-1.624465823E0,2.586935043E0,8.847173691E0,9.359679719E0
2.312469370E-1,-1.605312228E0,2.529474020E0,8.842385292E0,9.336115028E0
2.337603750E-1,-1.576581836E0,2.500743628E0,8.837596893E0,9.318929543E0
2.362738120E-1,-1.552639842E0,2.476801634E0,8.871115685E0,9.340338875E0
2.387872500E-1,-1.533486247E0,2.481590033E0,8.928576469E0,9.393047798E0
2.413006870E-1,-1.514332533E0,2.543839216E0,8.995614052E0,9.470237228E0
2.438141250E-1,-1.461660147E0,2.562992811E0,9.057863235E0,9.526293557E0
2.463275620E-1,-1.461660147E0,2.586935043E0,9.158419609E0,9.628360870E0
2.488410000E-1,-1.461660147E0,2.634819031E0,9.268553734E0,9.746015084E0
2.513544370E-1,-1.428141356E0,2.682703018E0,9.345168114E0,9.826934939E0
2.538678750E-1,-1.389834046E0,2.749740601E0,9.421782494E0,9.912754279E0
2.563813120E-1,-1.346738458E0,2.826355219E0,9.503185272E0,1.000562435E1
2.588947500E-1,-1.294066072E0,2.879027605E0,9.517550468E0,1.002732137E1
2.614081870E-1,-1.246181965E0,2.922123194E0,9.512762070E0,1.002917821E1
2.639216250E-1,-1.207874775E0,2.979583979E0,9.474454880E0,1.000510757E1
2.664350620E-1,-1.179144382E0,2.993949175E0,9.436147690E0,9.969703925E0
2.689483430E-1,-9.828197956E-1,3.113659382E0,9.364321709E0,9.917223934E0
2.714612600E-1,-8.678981066E-1,3.175908566E0,9.292495728E0,9.858504916E0
2.739741770E-1,-9.876081944E-1,3.171120167E0,9.163208008E0,9.746576530E0
2.764870930E-1,-1.140837073E0,3.171120167E0,8.990825653E0,9.601690386E0
2.790000100E-1,-1.021126986E0,3.195062160E0,8.909422874E0,9.519923239E0
2.815129270E-1,-8.822633028E-1,3.247734547E0,8.837596893E0,9.456705931E0
2.840258950E-1,-9.780313969E-1,3.266888142E0,8.703521729E0,9.347748072E0
2.865389160E-1,-1.088164687E0,3.223792553E0,8.622118950E0,9.269189608E0
2.890519890E-1,-1.270123959E0,3.185485363E0,8.612542152E0,9.270189545E0
2.915651140E-1,-1.351526856E0,2.970007181E0,8.741828918E0,9.330977459E0
2.940782910E-1,-1.404199243E0,2.797624588E0,8.918999672E0,9.452356002E0
2.965915200E-1,-1.538274646E0,2.831143618E0,8.938153267E0,9.501170817E0
2.991048020E-1,-1.662773132E0,2.845508814E0,8.933364868E0,9.521908567E0
3.016181350E-1,-1.768117905E0,2.845508814E0,8.918999672E0,9.527419193E0
3.041315200E-1,-1.921346903E0,2.725798607E0,8.952518463E0,9.553488305E0
3.066449580E-1,-2.285265446E0,2.333149672E0,9.110535622E0,9.678217029E0
3.091583950E-1,-2.476801634E0,2.146401882E0,9.316437721E0,9.876112554E0
3.116718330E-1,-2.524685621E0,2.088941097E0,9.484031677E0,1.003417008E1
3.141852700E-1,-2.519897223E0,2.045845270E0,9.680356026E0,1.021002731E1
3.166987080E-1,-2.457648039E0,2.012326479E0,9.881468773E0,1.037944685E1
3.192121450E-1,-2.352303267E0,2.007538080E0,1.009694672E1,1.055991822E1
3.217255830E-1,-2.184709072E0,2.007538080E0,1.019750404E1,1.062036965E1
3.242390200E-1,-2.002749681E0,2.045845270E0,1.022144604E1,1.061482210E1
3.267525100E-1,-1.772906303E0,2.122459888E0,1.021665764E1,1.058433399E1
3.292660520E-1,-1.519120932E0,2.232593060E0,1.012088871E1,1.047495052E1
3.317795930E-1,-1.203086376E0,2.337938070E0,9.958083153E0,1.029935878E1
3.342931350E-1,-8.966285586E-1,2.448071241E0,9.742605209E0,1.008540291E1
3.368066770E-1,-4.944026470E-1,2.558204412E0,9.565434456E0,9.913948765E0
3.393202180E-1,-2.513911761E-2,2.682703018E0,9.445724487E0,9.819329842E0
3.418337600E-1,5.015852451E-1,2.893392801E0,9.373898506E0,9.823099453E0
3.443473020E-1,1.047463298E0,3.108870983E0,9.287707329E0,9.850064242E0
3.468608430E-1,1.636436820E0,3.314772367E0,9.258976936E0,9.969668762E0
3.493743850E-1,2.048239470E0,3.372233152E0,9.215881348E0,1.002495438E1
3.518879270E-1,2.287659645E0,3.434482336E0,9.144054413E0,1.003208785E1
3.544014680E-1,2.364274263E0,3.477577925E0,9.067440033E0,9.995089283E0
3.569150100E-1,2.340332270E0,3.405751944E0,9.005190849E0,9.908065586E0
3.594283430E-1,2.215833664E0,3.204638958E0,8.909422874E0,9.724065283E0
3.619414680E-1,2.019509077E0,2.989160776E0,8.799289703E0,9.510047231E0
3.644544890E-1,1.813607812E0,2.788047791E0,8.622118950E0,9.241391614E0
3.669675100E-1,1.708262920E0,2.639607430E0,8.325238228E0,8.899173059E0
3.694805310E-1,1.636436820E0,2.539050817E0,7.946953773E0,8.501692702E0
3.719935000E-1,1.598129630E0,2.534262419E0,7.501632690E0,8.077808944E0
3.745064680E-1,1.555034041E0,2.649184227E0,7.065887928E0,7.704744003E0
3.770194370E-1,1.459265947E0,2.754528999E0,6.706757545E0,7.395774732E0
3.795324060E-1,1.291671872E0,2.797624588E0,6.357203960E0,7.064641658E0
3.820453750E-1,1.119289279E0,2.764105797E0,6.089053631E0,6.780093175E0
3.845583430E-1,9.516952038E-1,2.653972626E0,6.055534840E0,6.679730283E0
3.870713640E-1,7.888894677E-1,2.529474020E0,6.136937618E0,6.684503627E0
3.895844370E-1,6.452373862E-1,2.448071241E0,6.184821606E0,6.682918702E0
3.920975620E-1,5.015852451E-1,2.414552450E0,6.165668011E0,6.640565737E0
3.946107390E-1,3.962403834E-1,2.486378431E0,6.060323238E0,6.562514907E0
3.971240200E-1,3.435679376E-1,2.562992811E0,5.892728806E0,6.435155309E0
3.996374060E-1,3.148375154E-1,2.634819031E0,5.720346451E0,6.305851053E0
4.021508950E-1,2.813186944E-1,2.682703018E0,5.868786812E0,6.459001032E0
4.046644890E-1,2.908954918E-1,2.701856613E0,6.165668011E0,6.737960475E0
4.071781870E-1,3.770867586E-1,2.759317398E0,6.299743176E0,6.887872749E0
4.096919890E-1,4.920084476E-1,2.821566820E0,6.304531574E0,6.924624900E0
4.122058430E-1,6.452373862E-1,2.840720415E0,6.414664745E0,7.045136447E0
4.147197500E-1,8.128314614E-1,2.802412987E0,6.701969147E0,7.309624065E0
4.172337080E-1,9.612720013E-1,2.768894196E0,7.003638744E0,7.592218028E0
4.197477180E-1,1.033097982E0,2.716221809E0,7.357980251E0,7.911069823E0
4.222617290E-1,1.028309584E0,2.639607430E0,7.741052628E0,8.243108865E0
4.247754270E-1,9.947907925E-1,2.500743628E0,8.167220116E0,8.599233212E0
4.272887600E-1,9.181763530E-1,2.313995838E0,8.689156532E0,9.038753553E0
4.298020930E-1,8.511387110E-1,2.093729496E0,9.244611740E0,9.516879033E0
4.323153220E-1,8.271966577E-1,1.763329506E0,9.761758804E0,9.954170996E0
4.348285520E-1,8.798691034E-1,1.327584863E0,1.025017643E1,1.037317541E1
4.373417810E-1,9.900023937E-1,8.678981066E-1,1.061409473E1,1.069543636E1
4.398550100E-1,1.215057373E0,3.507505357E-1,1.089661026E1,1.096975412E1
4.423682390E-1,1.507149935E0,-1.568202078E-1,1.111687660E1,1.121967196E1
4.448814680E-1,1.880645394E0,-6.596025825E-1,1.124137592E1,1.141667357E1
4.473946970E-1,2.297236443E0,-1.076193690E0,1.127489471E1,1.155676161E1
4.499079790E-1,2.737769604E0,-1.420958757E0,1.122222233E1,1.163841828E1
4.524213120E-1,3.202244759E0,-1.655590534E0,1.111687660E1,1.168675733E1
4.549346970E-1,3.690661907E0,-1.770512104E0,1.097801304E1,1.171633342E1
4.574481350E-1,4.121618271E0,-1.760935307E0,1.082478428E1,1.171599697E1
4.599616250E-1,4.456806660E0,-1.660378933E0,1.064282513E1,1.165717421E1
4.624751660E-1,4.638765812E0,-1.435323954E0,1.037946320E1,1.145912559E1
4.649887600E-1,4.590881824E0,-1.090558887E0,1.014483070E1,1.118852558E1
4.675024060E-1,4.332307816E0,-6.643909812E-1,9.948506355E0,1.087120440E1
4.700161040E-1,3.920505285E0,-2.190694511E-1,9.838373184E0,1.059301374E1
4.725298020E-1,3.379415751E0,2.310404629E-1,9.804854393E0,1.037347580E1
4.750435000E-1,2.804807186E0,6.572083831E-1,9.862315178E0,1.027444047E1
4.775571970E-1,2.196680069E0,9.971849918E-1,9.958083153E0,1.024613104E1
4.800708950E-1,1.583764434E0,1.250970364E0,1.011131191E1,1.031076453E1
4.825845930E-1,9.516952038E-1,1.428141356E0,1.025975323E1,1.040230012E1
4.850982910E-1,4.010287821E-1,1.538274646E0,1.046086597E1,1.058096545E1
4.876119890E-1,-3.471592441E-2,1.657984734E0,1.069070911E1,1.081856645E1
4.901253750E-1,-2.885012925E-1,1.686715126E0,1.095407104E1,1.108692533E1
4.926387600E-1,-4.800374508E-1,1.653196216E0,1.120306873E1,1.133455966E1
4.951521450E-1,-5.997475386E-1,1.567005038E0,1.144248867E1,1.156484971E1
4.976655310E-1,-6.476315856E-1,1.485602140E0,1.161487103E1,1.172738971E1
5.001789160E-1,-6.141127348E-1,1.418564558E0,1.170585060E1,1.180747213E1
5.026923020E-1,-5.614402890E-1,1.346738458E0,1.173936939E1,1.182969625E1
5.052056870E-1,-4.800374508E-1,1.313219666E0,1.172979259E1,1.181283269E1
5.077190720E-1,-3.842693865E-1,1.303642869E0,1.167712021E1,1.175594675E1
5.102324580E-1,-2.837128937E-1,1.332373261E0,1.162444782E1,1.170399499E1
5.127458430E-1,-1.831564307E-1,1.380257249E0,1.163402462E1,1.171704678E1
5.152592810E-1,-7.302315533E-2,1.485602140E0,1.169148540E1,1.178571920E1
5.177727700E-1,1.795651205E-2,1.567005038E0,1.178246498E1,1.188622346E1
5.202863120E-1,1.328781992E-1,1.634042621E0,1.193090534E1,1.204301682E1
5.227999060E-1,2.573766708E-1,1.710657120E0,1.209371090E1,1.221680948E1
5.253135520E-1,3.770867586E-1,1.763329506E0,1.228524780E1,1.241687718E1
5.278272500E-1,5.255272985E-1,1.801636815E0,1.245763016E1,1.259819921E1
5.303410000E-1,8.990227580E-1,2.050633669E0,1.280718327E1,1.300143390E1
5.328548020E-1,1.215057373E0,2.175132275E0,1.297956562E1,1.321653088E1
5.353686040E-1,1.397016644E0,2.141613483E0,1.295083523E1,1.320084455E1
5.378824060E-1,1.526303530E0,2.069787264E0,1.290295124E1,1.315673867E1
5.403962080E-1,1.607706428E0,1.964442492E0,1.282154846E1,1.307041924E1
5.429095410E-1,1.665167332E0,1.887827992E0,1.274014568E1,1.298645405E1
5.454227180E-1,1.717839718E0,1.796848416E0,1.265395451E1,1.289582111E1
5.479357910E-1,1.765723705E0,1.691503525E0,1.258212852E1,1.281752404E1
5.504488640E-1,1.794454217E0,1.595735431E0,1.250551414E1,1.273398294E1
5.529619370E-1,1.794454217E0,1.543063045E0,1.240974617E1,1.263340451E1
5.554749060E-1,1.794454217E0,1.519120932E0,1.230918980E1,1.253171767E1
5.579876660E-1,1.736993313E0,1.499967337E0,1.219905663E1,1.241305886E1
5.605004270E-1,1.713051319E0,1.432929754E0,1.204582691E1,1.225111336E1
5.630131870E-1,1.669955730E0,1.442506552E0,1.192611694E1,1.212855485E1
5.655259470E-1,1.622071624E0,1.514332533E0,1.180161858E1,1.200843538E1
5.680387080E-1,1.569399238E0,1.595735431E0,1.165796661E1,1.187087070E1
5.705515200E-1,1.473631144E0,1.667561531E0,1.148079586E1,1.169448690E1
5.730643850E-1,1.353921056E0,1.768117905E0,1.127489471E1,1.149271917E1
5.755772500E-1,1.258152962E0,1.902193308E0,1.106420422E1,1.129680943E1
5.780901140E-1,1.205480576E0,1.983596087E0,1.082957268E1,1.107553526E1
5.806029790E-1,1.176750183E0,1.940500498E0,1.038903999E1,1.063402253E1
5.831157910E-1,1.124077678E0,1.969230890E0,1.005385113E1,1.030637392E1
5.856286040E-1,1.037886381E0,2.031480074E0,9.766547203E0,1.002943486E1
5.881414160E-1,9.325415492E-1,2.108094692E0,9.527127266E0,9.802032999E0
5.906542290E-1,8.607155085E-1,2.218227863E0,9.306860924E0,9.606197286E0
5.931670410E-1,7.553706169E-1,2.270900249E0,9.048286438E0,9.359436958E0
5.956799060E-1,6.787561774E-1,2.309207439E0,8.789712906E0,9.113298081E0
5.981928220E-1,6.643909812E-1,2.347514868E0,8.497620583E0,8.840916072E0
6.007057910E-1,7.122750282E-1,2.357091665E0,8.282142639E0,8.640434221E0
6.032188120E-1,8.176198602E-1,2.390610456E0,8.033144951E0,8.421100783E0
6.057318850E-1,9.900023937E-1,2.448071241E0,7.784148216E0,8.219861373E0
6.082450100E-1,1.181538582E0,2.524685621E0,7.583035469E0,8.079139671E0
6.107581870E-1,1.392228246E0,2.572569609E0,7.448959827E0,8.002713064E0
6.132714160E-1,1.526303530E0,2.653972626E0,7.362768650E0,7.973928477E0
6.157846450E-1,1.598129630E0,2.725798607E0,7.314884663E0,7.968157503E0
6.182978750E-1,1.602918029E0,2.831143618E0,7.367557049E0,8.053919372E0
6.208111040E-1,1.665167332E0,2.888604403E0,7.492055893E0,8.200470666E0
6.233242290E-1,1.765723705E0,2.888604403E0,7.578247070E0,8.300099051E0
6.258369890E-1,1.875856996E0,2.850297213E0,7.683591843E0,8.407176534E0
6.283497500E-1,2.029085875E0,2.788047791E0,7.693168640E0,8.430613483E0
6.308625100E-1,2.167949677E0,2.692279816E0,7.563881874E0,8.316290364E0
6.333752700E-1,2.297236443E0,2.625242233E0,7.583035469E0,8.346952676E0
6.358880310E-1,2.378639460E0,2.505532026E0,7.669226646E0,8.411459669E0
6.384007910E-1,2.402581453E0,2.385822058E0,7.879916191E0,8.576574124E0
6.409135520E-1,2.369062662E0,2.246958256E0,8.172008514E0,8.800170593E0
6.434263640E-1,2.278082848E0,2.093729496E0,8.693944931E0,9.228111569E0
6.459392290E-1,2.000355482E0,2.021903276E0,9.100958824E0,9.535038879E0
6.484521450E-1,1.823184609E0,1.988384485E0,9.163208008E0,9.552070769E0
6.509651140E-1,1.741781712E0,1.796848416E0,9.800065994E0,1.011453218E1
6.534781350E-1,1.693897724E0,1.576581836E0,1.033157921E1,1.058756009E1
6.559912080E-1,1.602918029E0,1.303642869E0,1.039382839E1,1.059719300E1
6.585043330E-1,1.406593442E0,1.126471877E0,1.031242561E1,1.046869457E1
6.610175100E-1,1.224634171E0,8.918401599E-1,1.069070911E1,1.079751680E1
6.635307390E-1,1.028309584E0,7.194576263E-1,1.069070911E1,1.076412102E1
6.660440200E-1,8.176198602E-1,5.662286878E-1,1.072901630E1,1.077501313E1
6.685573540E-1,6.835445762E-1,3.746925592E-1,1.091576385E1,1.094356104E1
6.710706870E-1,5.686228871E-1,2.262520641E-1,1.109772301E1,1.111458402E1
6.735840200E-1,4.776432514E-1,6.823474914E-2,1.144727707E1,1.145744087E1
6.760973540E-1,3.627215624E-1,-3.591302549E-3,1.154783344E1,1.155352920E1
6.786106870E-1,3.435679376E-1,-6.584054977E-2,1.154304504E1,1.154834459E1
6.811240200E-1,3.483563364E-1,-1.233013868E-1,1.163881302E1,1.164467792E1
6.836373540E-1,3.292027414E-1,-2.047042400E-1,1.172500420E1,1.173141090E1
6.861506870E-1,2.908954918E-1,-1.951274425E-1,1.174415779E1,1.174938029E1
6.886638640E-1,2.477998734E-1,-1.663970202E-1,1.170585060E1,1.170965546E1
6.911770410E-1,1.280897856E-1,-7.541735470E-2,1.167233181E1,1.167327823E1
6.936902180E-1,3.591302549E-3,5.865794048E-2,1.173458099E1,1.173472815E1
6.962031350E-1,-1.687912196E-1,2.118868530E-1,1.183034897E1,1.183345018E1
6.987158950E-1,-3.411737382E-1,3.746925592E-1,1.184471416E1,1.185554924E1
7.012283430E-1,-5.279214978E-1,5.853823423E-1,1.179683018E1,1.182313731E1
7.037407390E-1,-7.529764175E-1,7.960720658E-1,1.177767658E1,1.182854048E1
7.062531350E-1,-9.876081944E-1,1.025915384E0,1.178246498E1,1.186820767E1
7.087655310E-1,-1.246181965E0,1.270123959E0,1.186386776E1,1.199656378E1
7.112779270E-1,-1.346738458E0,1.509544134E0,1.211286449E1,1.228063167E1
7.137903750E-1,-1.332373261E0,1.562216640E0,1.235228539E1,1.252176879E1
7.163028750E-1,-1.236605167E0,1.466448545E0,1.226130581E1,1.241045059E1
7.188154270E-1,-1.112106681E0,1.246181965E0,1.174894619E1,1.186707577E1
7.213280310E-1,-8.918401599E-1,9.445125461E-1,1.098758984E1,1.106411376E1
7.238407390E-1,-5.949591398E-1,6.141127348E-1,1.028848362E1,1.032395302E1
7.263535520E-1,-2.885012925E-1,2.980781198E-1,9.895833969E0,9.904524901E0
7.288664680E-1,-5.865794048E-2,7.302315533E-2,9.761758804E0,9.762208156E0
7.313794890E-1,-3.172317147E-1,1.975216419E-1,9.733028412E0,9.740199835E0
7.338926660E-1,-5.327098966E-1,2.741360962E-1,9.713874817E0,9.732332423E0
7.364060000E-1,-8.008604646E-1,4.369418025E-1,9.527127266E0,9.570707893E0
7.389194890E-1,-8.487445116E-1,5.279214978E-1,9.239823341E0,9.293729269E0
7.414331350E-1,-8.583213091E-1,5.853823423E-1,8.918999672E0,8.979306382E0
7.439469370E-1,-8.248024583E-1,6.332663298E-1,8.617330551E0,8.679845112E0
7.464608430E-1,-7.673416734E-1,6.667851806E-1,8.401852608E0,8.463128438E0
7.489748540E-1,-6.907271743E-1,6.811503768E-1,8.234258652E0,8.291205305E0
7.514889160E-1,-6.476315856E-1,6.955155730E-1,8.138489723E0,8.193789328E0
7.540029790E-1,-6.189011335E-1,6.955155730E-1,8.076240540E0,8.129725812E0
7.565170410E-1,-6.093243361E-1,6.907271743E-1,7.994838238E0,8.047721331E0
7.590308950E-1,-6.284779310E-1,6.763619781E-1,7.951742172E0,8.005164184E0
7.615441250E-1,-6.236895323E-1,6.236895323E-1,7.913434982E0,7.962438727E0
7.640573540E-1,-5.758054852E-1,6.045359373E-1,7.918223381E0,7.962115119E0
7.665705830E-1,-5.135562420E-1,5.901707411E-1,7.946953773E0,7.985368858E0
7.690838120E-1,-4.560954273E-1,5.853823423E-1,8.023568153E0,8.057812447E0
7.715970410E-1,-3.986345828E-1,6.045359373E-1,8.119336128E0,8.151563800E0
7.741102700E-1,-3.555389643E-1,6.236895323E-1,8.195950508E0,8.227332576E0
7.766235000E-1,-3.363853395E-1,6.428431273E-1,8.272565842E0,8.304321043E0
7.791367290E-1,-2.693476975E-1,6.811503768E-1,8.401852608E0,8.433720487E0
7.816499580E-1,-1.256955862E-1,7.433996201E-1,8.670002937E0,8.702723327E0
7.841631870E-1,-8.259996027E-2,8.343793154E-1,8.942941666E0,8.982161056E0
7.866764160E-1,-1.783680320E-1,1.045069098E0,9.187150002E0,9.248119253E0
7.891896450E-1,-3.986345828E-1,1.303642869E0,9.378686905E0,9.477244448E0
7.917029270E-1,-5.901707411E-1,1.528697729E0,9.431359291E0,9.572656702E0
7.942162600E-1,-7.290344238E-1,1.634042621E0,9.335591316E0,9.505516909E0
7.967296450E-1,-7.577648163E-1,1.648407817E0,9.172784805E0,9.350477899E0
7.992430830E-1,-6.907271743E-1,1.634042621E0,9.067440033E0,9.239354310E0
8.017565720E-1,-5.901707411E-1,1.581370234E0,9.029132843E0,9.185546974E0
8.042701140E-1,-4.513070285E-1,1.514332533E0,9.053074837E0,9.189942603E0
8.067836560E-1,-3.363853395E-1,1.428141356E0,9.201516151E0,9.317759511E0
8.092971970E-1,-2.262520641E-1,1.365892053E0,9.306860924E0,9.409277940E0
8.118107390E-1,-1.783680320E-1,1.365892053E0,9.393052101E0,9.493519054E0
8.143242810E-1,-1.879448295E-1,1.365892053E0,9.460089684E0,9.560035626E0
8.168378220E-1,-1.927332431E-1,1.370680451E0,9.479243279E0,9.579768480E0
8.193513640E-1,-1.927332431E-1,1.413776159E0,9.474454880E0,9.581294505E0
8.218647500E-1,-1.927332431E-1,1.461660147E0,9.469666481E0,9.583745601E0
8.243779790E-1,-2.166752517E-1,1.543063045E0,9.484031677E0,9.611183516E0
8.268912080E-1,-2.358288616E-1,1.638831019E0,9.455301285E0,9.599172087E0
8.294044370E-1,-2.501940727E-1,1.677138329E0,9.412205696E0,9.563733900E0
8.319176660E-1,-2.789244950E-1,1.739387512E0,9.349956512E0,9.514460288E0
8.344308950E-1,-3.076549172E-1,1.777694821E0,9.287707329E0,9.461308464E0
8.369441250E-1,-2.932897210E-1,1.830367208E0,9.230246544E0,9.414548010E0
8.394574060E-1,-4.177882075E-1,1.935712099E0,9.196727753E0,9.407514532E0
8.419707390E-1,-6.236895323E-1,2.012326479E0,9.091382027E0,9.332291982E0
8.444841250E-1,-8.391677141E-1,2.079364061E0,9.019556046E0,9.294102894E0
8.469975620E-1,-1.006761789E0,2.098517895E0,8.966883659E0,9.264035256E0
8.495110520E-1,-1.083376288E0,2.093729496E0,8.947730064E0,9.253068717E0
8.520245930E-1,-1.126471877E0,2.036268473E0,8.938153267E0,9.236119965E0
8.545381870E-1,-1.102529883E0,1.945288897E0,8.832808495E0,9.111433857E0
8.570517810E-1,-1.088164687E0,1.844732404E0,8.559869766E0,8.823746962E0
8.595653750E-1,-1.021126986E0,1.753752708E0,8.172008514E0,8.420218052E0
8.620786560E-1,-8.870517015E-1,1.768117905E0,7.994838238E0,8.235929826E0
8.645918850E-1,-8.631097078E-1,1.906981707E0,8.152854919E0,8.417278713E0
8.671051140E-1,-8.152256608E-1,1.959654093E0,8.626907349E0,8.884163857E0
8.696183430E-1,-7.481880188E-1,2.021903276E0,9.067440033E0,9.320211742E0
8.721313640E-1,-7.290344238E-1,2.093729496E0,9.235034943E0,9.497424113E0
8.746443850E-1,-6.619967818E-1,2.242169857E0,9.177573204E0,9.470660765E0
8.771574060E-1,-5.374982953E-1,2.294842243E0,9.153631210E0,9.452204487E0
8.796704270E-1,-3.651157618E-1,2.352303267E0,9.100958824E0,9.407129833E0
8.821834470E-1,-1.687912196E-1,2.381033659E0,9.086593628E0,9.394891991E0
8.846965200E-1,3.232172132E-2,2.400187254E0,9.096170425E0,9.407563976E0
8.872096450E-1,1.807622313E-1,2.424129248E0,9.196727753E0,9.512564268E0
8.897228220E-1,2.908954918E-1,2.448071241E0,9.321226120E0,9.641728547E0
8.922360520E-1,3.483563364E-1,2.515108824E0,9.503185272E0,9.836546897E0
8.947493330E-1,3.579331636E-1,2.567781210E0,9.637260437E0,9.979900061E0
8.972626660E-1,3.675099611E-1,2.615665436E0,9.704298019E0,1.005734405E1
8.997760520E-1,3.675099611E-1,2.668337822E0,9.661202431E0,1.002965217E1
9.022894890E-1,4.537012279E-1,2.725798607E0,9.541492462E0,9.933574445E0
9.048029790E-1,5.159504414E-1,2.749740601E0,9.306860924E0,9.718278576E0
9.073164680E-1,5.686228871E-1,2.716221809E0,8.933364868E0,9.354474906E0
9.098299580E-1,6.021417379E-1,2.663549423E0,8.444948196E0,8.875484226E0
9.123434470E-1,6.931213737E-1,2.620453835E0,7.908646584E0,8.360256355E0
9.148569370E-1,7.936778665E-1,2.572569609E0,7.381922245E0,7.857532372E0
9.173704270E-1,8.942343593E-1,2.505532026E0,6.965331078E0,7.456083613E0
9.198839160E-1,9.612720013E-1,2.467224836E0,6.668450356E0,7.174919679E0
9.223974060E-1,9.516952038E-1,2.385822058E0,6.481702328E0,6.972111281E0
9.249105830E-1,9.564836025E-1,2.285265446E0,6.395511150E0,6.858561213E0
9.274237600E-1,1.018732786E0,2.347514868E0,6.352415562E0,6.848490784E0
9.299369370E-1,9.277531505E-1,2.400187254E0,6.227917194E0,6.738588676E0
9.324501140E-1,7.793126702E-1,2.424129248E0,6.103418827E0,6.613278478E0
9.349632910E-1,5.877765417E-1,2.476801634E0,6.069900036E0,6.582075208E0
9.374764680E-1,4.106055796E-1,2.572569609E0,6.203975201E0,6.728745769E0
9.399896450E-1,2.047042400E-1,2.706645012E0,6.515221596E0,7.058041052E0
9.425028220E-1,5.147533491E-2,2.826355219E0,6.869563103E0,7.428447399E0
9.450160000E-1,-5.386953801E-2,2.912546396E0,7.267000675E0,7.829120465E0
9.475291770E-1,-1.161187813E-1,3.017891169E0,7.741052628E0,8.309334899E0
9.500424060E-1,-1.975216419E-1,3.099294186E0,8.186373711E0,8.755646965E0
9.525556350E-1,-2.262520641E-1,3.151966572E0,8.574234962E0,9.138029791E0
9.550688640E-1,-2.023100406E-1,3.151966572E0,8.875904083E0,9.421119674E0
9.575819370E-1,-1.400607973E-1,3.123236179E0,9.139266014E0,9.659213453E0
9.600946970E-1,-7.302315533E-2,3.104082584E0,9.345168114E0,9.847478263E0
9.626070930E-1,-5.985504016E-3,3.051409960E0,9.498396873E0,9.976506489E0
9.651194890E-1,8.978256583E-2,2.941276789E0,9.689932823E0,1.012689331E1
9.676318850E-1,2.286462635E-1,2.816778183E0,9.843161583E0,1.024081776E1
9.701442810E-1,2.621650994E-1,2.768894196E0,9.967659950E0,1.034841778E1
9.726566770E-1,3.244143426E-1,2.716221809E0,1.010652351E1,1.047019212E1
9.751690720E-1,5.590460896E-1,2.591723442E0,1.021665764E1,1.055507727E1
9.776814680E-1,6.931213737E-1,2.562992811E0,1.018792725E1,1.052821024E1
9.801938640E-1,6.979097724E-1,2.606088638E0,1.010652351E1,1.046042989E1
9.827063120E-1,8.367735147E-1,2.649184227E0,9.986813545E0,1.036604128E1
9.852188120E-1,8.846575022E-1,2.730587006E0,9.790489197E0,1.020256845E1
9.877314160E-1,8.463503122E-1,2.850297213E0,9.651625633E0,1.009922672E1
9.902441250E-1,7.122750282E-1,2.998737574E0,9.479243279E0,9.967738755E0
9.927569370E-1,5.542576909E-1,3.161543369E0,9.340379715E0,9.876499951E0
9.952699060E-1,5.015852451E-1,3.329137564E0,9.244611740E0,9.838576671E0
9.977830310E-1,5.686228871E-1,3.472789526E0,9.153631210E0,9.806761107E0
1.000296312E0,6.979097724E-1,3.597288132E0,9.120112419E0,9.828733921E0
1.002809750E0,8.655039072E-1,3.659537315E0,9.158419609E0,9.900402018E0
1.005323291E0,1.109712481E0,3.645172119E0,9.235034943E0,9.990225821E0
1.007836937E0,1.339555860E0,3.558980942E0,9.426570892E0,1.016469350E1
1.010350687E0,1.555034041E0,3.439270735E0,9.723451614E0,1.043035116E1
1.012864489E0,1.693897724E0,3.362656355E0,1.002512074E1,1.070886516E1
1.015378343E0,1.784877419E0,3.319560766E0,1.029327202E1,1.096160207E1
1.017892197E0,1.827973008E0,3.286041737E0,1.053748035E1,1.118829960E1
1.020406052E0,1.818396211E0,3.281253338E0,1.070986271E1,1.134787855E1
1.022919906E0,1.938106298E0,3.185485363E0,1.086787987E1,1.148975134E1
1.025433447E0,1.909375906E0,3.209427357E0,1.095407104E1,1.157315051E1
1.027946833E0,1.794454217E0,3.300406933E0,1.097801304E1,1.160299626E1
1.030459906E0,1.646013618E0,3.396175146E0,1.099716663E1,1.162673817E1
1.032972979E0,1.516726732E0,3.472789526E0,1.106899261E1,1.169971472E1
1.035486052E0,1.382651448E0,3.530250311E0,1.113603020E1,1.176373924E1
1.037999125E0,1.262941360E0,3.582922935E0,1.119349194E1,1.182060148E1
1.040512197E0,1.171961784E0,3.654748917E0,1.119349194E1,1.183321367E1
1.043025270E0,1.095347285E0,3.702632904E0,1.116954994E1,1.181812684E1
1.045538343E0,5.973533392E-1,3.827131510E0,1.123179913E1,1.188095443E1
1.048051416E0,-1.077390742E-2,3.980360270E0,1.134672070E1,1.202461868E1
1.050564489E0,-4.321534038E-1,4.013879299E0,1.144727707E1,1.213829213E1
1.053077562E0,-5.805938840E-1,3.894169092E0,1.157177544E1,1.222324134E1
1.055590635E0,-5.374982953E-1,3.712209702E0,1.163881302E1,1.222830216E1
1.058103708E0,-4.752490520E-1,3.544615507E0,1.163402462E1,1.217130599E1
1.060616781E0,-4.177882075E-1,3.357867956E0,1.162923622E1,1.211152176E1
1.063129854E0,-3.794809580E-1,3.209427357E0,1.174894619E1,1.218532586E1
1.065642927E0,-3.411737382E-1,3.104082584E0,1.192611694E1,1.232817884E1
1.068156000E0,-3.794809580E-1,3.056198359E0,1.202188492E1,1.241007942E1
1.070669125E0,-4.848258495E-1,3.056198359E0,1.199794292E1,1.239056249E1
1.073182302E0,-6.141127348E-1,3.060986757E0,1.194527054E1,1.234650811E1
1.075695531E0,-6.524199843E-1,3.075352192E0,1.188780975E1,1.229648176E1
1.078208812E0,-6.284779310E-1,3.147178173E0,1.185429096E1,1.228103942E1
1.080722145E0,-5.566518903E-1,3.247734547E0,1.182556057E1,1.227605490E1
1.083235479E0,-3.315969408E-1,3.424905539E0,1.188302135E1,1.237118147E1
1.085748812E0,-2.885012925E-1,3.578134537E0,1.170106220E1,1.223932745E1
1.088262145E0,-3.363853395E-1,3.707421303E0,1.146643066E1,1.205558626E1
1.090775166E0,-3.172317147E-1,3.755305290E0,1.134672070E1,1.195621279E1
1.093288187E0,-2.358288616E-1,3.788824081E0,1.128447151E1,1.190588512E1
1.095801208E0,-1.256955862E-1,3.841496706E0,1.125095272E1,1.188935799E1
1.098314229E0,1.795651205E-2,3.827131510E0,1.119828033E1,1.183421905E1
1.100827250E0,2.190694511E-1,3.760093689E0,1.120785713E1,1.182380469E1
1.103340270E0,2.717418969E-1,3.716998100E0,1.112645340E1,1.173404806E1
1.105853343E0,1.711854190E-1,3.755305290E0,1.090618706E1,1.153588048E1
1.108366468E0,1.520318091E-1,3.721786499E0,1.069070911E1,1.132104544E1
1.110879645E0,2.430114746E-1,3.697844505E0,1.058536434E1,1.121530413E1
1.113392875E0,4.776432514E-1,3.630806923E0,1.055184555E1,1.116925900E1
1.115906156E0,7.505822182E-1,3.535038710E0,1.059015274E1,1.118978138E1
1.118419489E0,8.319851160E-1,3.563769341E0,1.049438477E1,1.111416946E1
1.120932875E0,8.607155085E-1,3.539827108E0,1.038903999E1,1.100923972E1
1.123446312E0,8.607155085E-1,3.515885115E0,1.033157921E1,1.094731968E1
1.125959802E0,9.181763530E-1,3.468001127E0,1.035073280E1,1.095480485E1
1.128473343E0,1.018732786E0,3.429693937E0,1.033636761E1,1.093805798E1
1.130986937E0,1.133654475E0,3.463212729E0,1.036988640E1,1.099152213E1
1.133500583E0,1.315613866E0,3.716998100E0,1.044650078E1,1.116585390E1
1.136014229E0,1.449689150E0,3.841496706E0,1.056621075E1,1.133593865E1
1.138527875E0,1.636436820E0,3.659537315E0,1.072901630E1,1.145346802E1
1.141040739E0,1.741781712E0,3.463212729E0,1.092055225E1,1.158818827E1
1.143553604E0,1.674744129E0,3.377021551E0,1.106420422E1,1.168869785E1
1.146066468E0,1.459265947E0,3.333925962E0,1.113124180E1,1.171106585E1
1.148579333E0,1.095347285E0,3.357867956E0,1.112645340E1,1.167360391E1
1.151092197E0,6.739677787E-1,3.429693937E0,1.116954994E1,1.170366947E1
1.153605062E0,2.908954918E-1,3.520673513E0,1.129883671E1,1.183822086E1
1.156117927E0,-7.302315533E-2,3.573346138E0,1.149994946E1,1.204254842E1
1.158630791E0,-3.986345828E-1,3.606864929E0,1.174894619E1,1.229658980E1
1.161143708E0,-7.050924301E-1,3.659537315E0,1.197878933E1,1.254514896E1
1.163656677E0,-1.001973391E0,3.750516891E0,1.221342182E1,1.281553745E1
1.166169697E0,-1.212663174E0,3.745728493E0,1.238101578E1,1.299194310E1
1.168682822E0,-1.279700756E0,3.626018524E0,1.240016937E1,1.298267479E1
1.171196052E0,-1.265335560E0,3.491943121E0,1.231876659E1,1.286649724E1
1.173709385E0,-1.193509579E0,3.329137564E0,1.214638424E1,1.265078148E1
1.176222822E0,-1.179144382E0,3.084928989E0,1.192132854E1,1.237033721E1
1.178736364E0,-1.140837073E0,2.807201385E0,1.177767658E1,1.216123162E1
1.181249958E0,-1.116895080E0,2.505532026E0,1.163881302E1,1.195772193E1
1.183763604E0,-1.107318282E0,2.213439465E0,1.143291187E1,1.169773234E1
1.186277250E0,-1.069011092E0,1.926135302E0,1.121264553E1,1.142699443E1
1.188790895E0,-9.301473498E-1,1.643619418E0,1.129404831E1,1.145085962E1
1.191304177E0,-7.242460251E-1,1.370680451E0,1.163881302E1,1.174160405E1
1.193817041E0,-4.465186298E-1,1.073799491E0,1.198357773E1,1.203987373E1
1.196329906E0,-2.549824715E-1,8.822633028E-1,1.229003620E1,1.232430097E1
1.198842770E0,-1.256955862E-1,8.487445116E-1,1.260128212E1,1.263045833E1
1.201355635E0,-1.556231081E-2,9.445125461E-1,1.288858604E1,1.292315737E1
1.203868500E0,1.472434103E-1,1.183932781E0,1.306096840E1,1.311534494E1
1.206381416E0,3.244143426E-1,1.432929754E0,1.318067932E1,1.326230899E1
1.208894385E0,4.967968464E-1,1.638831019E0,1.315673733E1,1.326771688E1
1.211407406E0,6.500257850E-1,1.787271619E0,1.311364079E1,1.325082820E1
1.213920479E0,8.511387110E-1,1.897404790E0,1.304181480E1,1.320657092E1
1.216433604E0,1.047463298E0,1.974019289E0,1.298914242E1,1.317997543E1
1.218946781E0,1.224634171E0,2.017114878E0,1.294604683E1,1.315935446E1
1.221460010E0,1.420958757E0,2.021903276E0,1.299871922E1,1.323155009E1
1.223973291E0,1.559822440E0,2.026691675E0,1.307533360E1,1.332309550E1
1.226486625E0,1.679532528E0,2.041056871E0,1.314716053E1,1.341024134E1
1.229000062E0,1.722628117E0,2.060210466E0,1.326208210E1,1.353125036E1
1.231513604E0,1.713051319E0,2.055422068E0,1.334348488E1,1.360911068E1
1.234027250E0,1.660378933E0,2.050633669E0,1.339615726E1,1.365353383E1
1.236541000E0,1.511938334E0,2.041056871E0,1.333869648E1,1.357839072E1
1.239054802E0,1.358709455E0,2.055422068E0,1.316631413E1,1.339487510E1
1.241568656E0,1.186326981E0,1.993172884E0,1.307533360E1,1.327947508E1
1.244082510E0,1.023521185E0,1.950077295E0,1.304181480E1,1.322646326E1
1.246596364E0,8.511387110E-1,1.883039594E0,1.294125843E1,1.310520679E1
1.249110166E0,6.787561774E-1,1.830367208E0,1.286464405E1,1.301191841E1
1.251623500E0,5.207388401E-1,1.792060018E0,1.280718327E1,1.294243375E1
1.254136833E0,3.579331636E-1,1.734599113E0,1.272099209E1,1.284369845E1
1.256649802E0,2.238578647E-1,1.653196216E0,1.261085892E1,1.272072847E1
1.259162770E0,1.041477770E-1,1.595735431E0,1.250072575E1,1.260259348E1
1.261675739E0,-5.985504016E-3,1.567005038E0,1.233792019E1,1.243703402E1
1.264188708E0,3.591302549E-3,1.523909330E0,1.223257542E1,1.232713324E1
1.266701677E0,-4.908113554E-2,1.504755735E0,1.206019211E1,1.215380321E1
1.269214697E0,-1.352723986E-1,1.456871748E0,1.186865616E1,1.195850212E1
1.271727770E0,-2.501940727E-1,1.428141356E0,1.169148540E1,1.178104477E1
1.274240895E0,-3.746925592E-1,1.389834046E0,1.149516106E1,1.158493681E1
1.276754072E0,-4.082113802E-1,1.375468850E0,1.140896988E1,1.149883232E1
1.279267302E0,-5.327098966E-1,1.380257249E0,1.124137592E1,1.133831657E1
1.281780583E0,-6.667851806E-1,1.365892053E0,1.104026222E1,1.114440010E1
1.284293968E0,-7.386112213E-1,1.361103654E0,1.089182186E1,1.100136051E1
1.286807458E0,-8.631097078E-1,1.365892053E0,1.081041908E1,1.093049771E1
1.289321052E0,-1.021126986E0,1.327584863E0,1.069070911E1,1.082111100E1
1.291834750E0,-1.150413871E0,1.250970364E0,1.057099915E1,1.070674562E1
1.294348552E0,-1.198297977E0,1.183932781E0,1.048001957E1,1.061453838E1
1.296862406E0,-1.112106681E0,1.159990668E0,1.049438477E1,1.061670717E1
1.299376312E0,-1.073799491E0,1.097741485E0,1.040819359E1,1.052086382E1
1.301890218E0,-1.102529883E0,9.828197956E-1,1.013046551E1,1.023756994E1
1.304404125E0,-1.121683478E0,9.014169574E-1,9.891045570E0,9.995174277E0
1.306916989E0,-1.112106681E0,9.253589511E-1,9.828796387E0,9.934702254E0
1.309429489E0,-9.780313969E-1,9.684545994E-1,9.914987564E0,1.001006634E1
1.311941989E0,-7.864952683E-1,9.876081944E-1,9.958083153E0,1.003779681E1
1.314454489E0,-5.997475386E-1,1.021126986E0,9.929352760E0,9.999722180E0
1.316967041E0,-4.369418025E-1,1.116895080E0,9.900622368E0,9.972998347E0
1.319479645E0,-2.597708702E-1,1.294066072E0,9.996390343E0,1.008314970E1
1.321992302E0,-1.640028208E-1,1.452083349E0,1.013525391E1,1.024005931E1
1.324505010E0,-1.352723986E-1,1.514332533E0,1.018792725E1,1.030074576E1
1.327017822E0,-8.738835901E-2,1.509544134E0,1.023102283E1,1.034215589E1
1.329530739E0,2.274491638E-2,1.476025343E0,1.037946320E1,1.048391265E1
1.332043708E0,2.142810524E-1,1.452083349E0,1.053269196E1,1.063447518E1
1.334556729E0,4.153940082E-1,1.447294950E0,1.066676712E1,1.077251761E1
1.337069802E0,5.351040959E-1,1.461660147E0,1.077690029E1,1.088872659E1
1.339582927E0,6.021417379E-1,1.480813742E0,1.079605389E1,1.091376028E1
1.342096104E0,6.260837317E-1,1.552639842E0,1.079126549E1,1.092035174E1
1.344609333E0,6.117185354E-1,1.624465823E0,1.070986271E1,1.084961972E1
1.347122614E0,7.553706169E-1,1.428141356E0,1.071943951E1,1.084050533E1
1.349635947E0,8.990227580E-1,1.241393566E0,1.076253510E1,1.087112973E1
1.352149385E0,1.013944387E0,1.212663174E0,1.083436108E1,1.094906458E1
1.354662927E0,1.052251697E0,1.246181965E0,1.089182186E1,1.101326412E1
1.357176520E0,9.995791912E-1,1.294066072E0,1.073859310E1,1.086237301E1
1.359690166E0,9.133879542E-1,1.337161660E0,1.059494114E1,1.071797820E1
1.362203864E0,8.702923059E-1,1.404199243E0,1.043213558E1,1.056213222E1
1.364717614E0,8.271966577E-1,1.394622445E0,1.024059963E1,1.036817761E1
1.367231416E0,8.990227580E-1,1.389834046E0,1.002990913E1,1.016557710E1
1.369745270E0,1.320402265E0,1.662773132E0,9.891045570E0,1.011637579E1
1.372259177E0,1.406593442E0,1.705868721E0,9.608530045E0,9.859631982E0
1.374773135E0,1.401805043E0,1.614889026E0,9.302072525E0,9.544709383E0
1.377287093E0,1.296460271E0,1.528697729E0,9.239823341E0,9.454737509E0
1.379801052E0,1.090558887E0,1.447294950E0,9.230246544E0,9.406456964E0
1.382315010E0,9.564836025E-1,1.375468850E0,9.100958824E0,9.253876321E0
1.384828968E0,8.511387110E-1,1.289277673E0,8.962095261E0,9.094274324E0
1.387342770E0,5.781996846E-1,1.164779186E0,8.799289703E0,8.894859454E0
1.389856156E0,2.477998734E-1,1.088164687E0,8.545504570E0,8.618071450E0
1.392369541E0,-1.197100850E-3,1.092953086E0,8.353968620E0,8.425161102E0
1.394882927E0,-1.448491961E-1,1.025915384E0,8.234258652E0,8.299186659E0
1.397396312E0,-2.693476975E-1,1.011550188E0,8.104970932E0,8.172290730E0
1.399909697E0,-4.034229815E-1,1.006761789E0,7.832032204E0,7.906772277E0
1.402423083E0,-5.518634915E-1,9.157821536E-1,7.741052628E0,7.814544520E0
1.404936468E0,-6.763619781E-1,8.535329103E-1,7.683591843E0,7.760384498E0
1.407449854E0,-6.763619781E-1,8.774749041E-1,7.697957039E0,7.777272678E0
1.409963239E0,-6.428431273E-1,8.583213091E-1,7.894281387E0,7.966783628E0
1.412476625E0,-6.524199843E-1,7.817068696E-1,7.855974197E0,7.921682148E0
1.414989906E0,-6.763619781E-1,8.008604646E-1,7.827243805E0,7.897125337E0
1.417503187E0,-7.290344238E-1,8.152256608E-1,7.889492989E0,7.964934632E0
1.420016468E0,-7.625532150E-1,9.349357486E-1,8.047510147E0,8.137445043E0
1.422529750E0,-7.769184709E-1,1.030703783E0,8.172008514E0,8.273311052E0
1.425043031E0,-7.481880188E-1,1.097741485E0,8.224681854E0,8.331279210E0
1.427556312E0,-6.859387755E-1,1.121683478E0,8.363545418E0,8.466261146E0
1.430069593E0,-6.428431273E-1,1.131260276E0,8.607753754E0,8.705539718E0
1.432582875E0,-5.422866940E-1,1.174355984E0,8.775347710E0,8.870169912E0
1.435096156E0,-4.608838260E-1,1.207874775E0,8.962095261E0,9.054862055E0
1.437609437E0,-4.082113802E-1,1.179144382E0,9.148842812E0,9.233544433E0
1.440122718E0,-3.555389643E-1,1.193509579E0,9.287707329E0,9.370826031E0
1.442636000E0,-3.076549172E-1,1.207874775E0,9.421782494E0,9.503872809E0
1.445149281E0,-2.837128937E-1,1.198297977E0,9.488820076E0,9.568391583E0
1.447662562E0,-2.262520641E-1,1.193509579E0,9.527127266E0,9.604259943E0
1.450175843E0,-1.927332431E-1,1.212663174E0,9.579799652E0,9.658170606E0
1.452689125E0,-1.496376097E-1,1.193509579E0,9.622895241E0,9.697781671E0
1.455202406E0,-1.017535701E-1,1.145625472E0,9.627683640E0,9.696138601E0
1.457715687E0,3.591302549E-3,1.188721180E0,9.608530045E0,9.681782922E0
1.460228968E0,8.020575345E-2,1.155202270E0,9.565434456E0,9.635271744E0
1.462742250E0,8.978256583E-2,1.083376288E0,9.479243279E0,9.541374022E0
1.465255531E0,1.185129806E-1,1.069011092E0,9.393052101E0,9.454430592E0
1.467768812E0,1.568202078E-1,1.073799491E0,9.244611740E0,9.308087030E0
1.470282093E0,1.855506301E-1,1.073799491E0,9.057863235E0,9.123177121E0
1.472795375E0,3.148375154E-1,8.822633028E-1,8.842385292E0,8.891866444E0
1.475308656E0,5.207388401E-1,6.763619781E-1,8.583811760E0,8.626149709E0
1.477821937E0,6.835445762E-1,4.417302012E-1,8.272565842E0,8.312502894E0
1.480335218E0,9.516952038E-1,1.209071875E-1,7.999626637E0,8.056945366E0
1.482848500E0,8.846575022E-1,2.932897210E-1,8.028356552E0,8.082273609E0
1.485361781E0,6.308721304E-1,5.997475386E-1,8.138489723E0,8.184907558E0
1.487875062E0,5.446808934E-1,7.433996201E-1,7.994838238E0,8.047779738E0
1.490388343E0,3.962403834E-1,8.726865053E-1,7.736264229E0,7.795407135E0
1.492901625E0,3.770867586E-1,1.049857497E0,7.650073051E0,7.730977485E0
1.495414906E0,1.903390288E-1,1.432929754E0,7.721899033E0,7.856032160E0
1.497928187E0,-1.304839998E-1,1.950077295E0,7.951742172E0,8.188408338E0
1.500441468E0,-5.135562420E-1,2.491166830E0,8.128912926E0,8.517562888E0
1.502954750E0,-9.971849918E-1,3.027467966E0,8.239047050E0,8.834129074E0
1.505468031E0,-1.361103654E0,3.420117140E0,8.301296234E0,9.080821745E0
1.507981364E0,-1.408987641E0,3.448847532E0,8.210315704E0,9.016045665E0
1.510494750E0,-1.188721180E0,3.228580952E0,8.128912926E0,8.827005062E0
1.513008187E0,-8.535329103E-1,2.917334795E0,8.114547729E0,8.665174297E0
1.515521677E0,-5.566518903E-1,2.548627615E0,8.172008514E0,8.578291625E0
1.518035218E0,-3.268085420E-1,2.155978680E0,8.200738907E0,8.485703654E0
1.520548812E0,-1.640028208E-1,1.744175911E0,8.152854919E0,8.338950166E0
1.523062458E0,-6.344634295E-2,1.375468850E0,8.085817337E0,8.202218115E0
1.525576156E0,-1.077390742E-2,1.083376288E0,8.042721748E0,8.115367729E0
1.528089906E0,4.668693244E-2,8.583213091E-1,7.961318970E0,8.007589829E0
1.530603708E0,9.935937077E-2,7.290344238E-1,7.908646584E0,7.942798893E0
1.533117562E0,1.137245819E-1,6.715735793E-1,7.851185799E0,7.880676544E0
1.535631468E0,9.457096457E-2,6.045359373E-1,7.841609001E0,7.865445893E0
1.538145375E0,2.753331885E-2,5.710170865E-1,7.870339394E0,7.891074754E0
1.540659281E0,-2.513911761E-2,5.374982953E-1,7.923011780E0,7.941262623E0
1.543173187E0,-6.823474914E-2,5.566518903E-1,7.985261440E0,8.004930829E0
1.545687093E0,-6.823474914E-2,6.093243361E-1,8.052298546E0,8.075607965E0
1.548201000E0,1.280897856E-1,5.422866940E-1,8.277354240E0,8.296087938E0
1.550714906E0,1.568202078E-1,5.518634915E-1,8.382699013E0,8.402308530E0
1.553228656E0,5.626374111E-2,5.997475386E-1,8.363545418E0,8.385210473E0
1.555741989E0,-9.217676520E-2,6.284779310E-1,8.286931038E0,8.311239805E0
1.558255322E0,-2.358288616E-1,5.805938840E-1,8.191162109E0,8.215098369E0
1.560768656E0,-3.124433160E-1,5.087678432E-1,8.090605736E0,8.112605421E0
1.563281989E0,-3.076549172E-1,4.513070285E-1,7.870339394E0,7.889269406E0
1.565795375E0,-3.651157618E-1,4.513070285E-1,7.587823868E0,7.609997280E0
1.568308812E0,-4.369418025E-1,4.608838260E-1,7.252635479E0,7.280388275E0
1.570822302E0,-6.093243361E-1,6.045359373E-1,6.821679115E0,6.875466951E0
1.573335843E0,-8.104372621E-1,7.912836671E-1,6.342838764E0,6.443177942E0
1.575849437E0,-7.481880188E-1,7.912836671E-1,5.959766388E0,6.058442915E0
1.578363083E0,-6.236895323E-1,6.572083831E-1,5.638943672E0,5.711269319E0
1.580876729E0,-5.614402890E-1,5.470750928E-1,5.303755283E0,5.361373561E0
1.583389489E0,-5.231330991E-1,5.327098966E-1,4.982932091E0,5.038557362E0
1.585902250E0,-4.465186298E-1,5.805938840E-1,4.729146957E0,4.785530179E0
1.588415010E0,-3.315969408E-1,6.045359373E-1,4.489726543E0,4.542363335E0
1.590927770E0,-2.166752517E-1,6.476315856E-1,4.331709385E0,4.385211629E0
1.593440531E0,-5.865794048E-2,7.817068696E-1,4.178480625E0,4.251377038E0
1.595953291E0,1.137245819E-1,8.918401599E-1,4.044404984E0,4.143129713E0
1.598466052E0,2.813186944E-1,1.006761789E0,3.982156038E0,4.117071316E0
1.600978864E0,4.106055796E-1,1.088164687E0,3.910329819E0,4.079629716E0
1.603491729E0,5.398924947E-1,1.131260276E0,3.824138641E0,4.024334736E0
1.606004697E0,6.739677787E-1,1.145625472E0,3.747524261E0,3.976258088E0
1.608517770E0,7.841010690E-1,1.121683478E0,3.747524261E0,3.989602286E0
1.611031000E0,8.702923059E-1,1.121683478E0,3.776254654E0,4.034313044E0
1.613544385E0,9.229647517E-1,1.126471877E0,3.819350243E0,4.087571296E0
1.616057927E0,1.004367590E0,1.131260276E0,3.891176224E0,4.174895983E0
1.618571625E0,1.071405292E0,1.112106681E0,3.939060450E0,4.230944078E0
1.621085479E0,1.124077678E0,1.131260276E0,3.977367640E0,4.285178383E0
1.623599437E0,1.167173386E0,1.150413871E0,4.010886192E0,4.332776689E0
1.626113500E0,1.234210968E0,1.174355984E0,4.073135853E0,4.415067878E0
1.628627614E0,1.253364563E0,1.241393566E0,4.111443043E0,4.473918261E0
1.631141729E0,1.224634171E0,1.313219666E0,4.168903828E0,4.539166649E0
1.633655843E0,1.143231273E0,1.408987641E0,4.269460201E0,4.639020837E0
1.636169958E0,1.009155989E0,1.509544134E0,4.341286182E0,4.705728957E0
1.638683916E0,9.229647517E-1,1.610100627E0,4.403535366E0,4.778641196E0
1.641197770E0,8.559271097E-1,1.648407817E0,4.484938145E0,4.854331026E0
1.643711364E0,7.888894677E-1,1.677138329E0,4.642955780E0,4.999217733E0
1.646224958E0,7.649474144E-1,1.739387512E0,4.781819344E0,5.145523268E0
1.648738552E0,7.649474144E-1,1.806425214E0,4.925471306E0,5.301752935E0
1.651252145E0,7.553706169E-1,1.945288897E0,5.002085686E0,5.419925725E0
1.653765739E0,8.224082589E-1,2.045845270E0,5.107430935E0,5.563064710E0
1.656279333E0,9.947907925E-1,2.036268473E0,5.351639271E0,5.811715831E0
1.658792927E0,1.215057373E0,1.959654093E0,5.605424881E0,6.061138233E0
1.661306520E0,1.468842745E0,1.844732404E0,5.806537628E0,6.267089905E0
1.663820010E0,1.784877419E0,1.701080322E0,5.911882401E0,6.405451989E0
1.666333500E0,2.120065689E0,1.547851443E0,5.978919983E0,6.529778463E0
1.668846989E0,2.450465441E0,1.418564558E0,6.045958042E0,6.676130236E0
1.671360479E0,2.785653591E0,1.337161660E0,6.132149220E0,6.866667408E0
1.673873968E0,3.072957993E0,1.289277673E0,6.271012783E0,7.101472317E0
1.676387458E0,3.388992548E0,1.294066072E0,6.433818340E0,7.386060921E0
1.678900947E0,3.666719913E0,1.284489155E0,6.615777969E0,7.672239924E0
1.681414437E0,3.968389273E0,1.284489155E0,6.788160324E0,7.967254633E0
1.683927927E0,4.265270233E0,1.284489155E0,6.950965881E0,8.255808212E0
1.686441416E0,4.576516628E0,1.236605167E0,7.137713909E0,8.568585451E0
1.688954906E0,5.136759758E0,9.349357486E-1,7.118560314E0,8.828040927E0
1.691468395E0,5.744886875E0,5.614402890E-1,7.065887928E0,9.123908845E0
1.693981885E0,6.084863663E0,4.704606235E-1,7.276577473E0,9.497130025E0
1.696495375E0,6.228515625E0,5.758054852E-1,7.616554260E0,9.855853979E0
1.699008864E0,6.324283600E0,6.667851806E-1,7.832032204E0,1.008870130E1
1.701522354E0,6.487089634E0,6.476315856E-1,7.961318970E0,1.029001255E1
1.704035843E0,6.496666431E0,8.056488633E-1,8.315661430E0,1.058328729E1
1.706549385E0,6.458359241E0,9.971849918E-1,8.579023361E0,1.078445288E1
1.709062979E0,6.487089634E0,1.150413871E0,8.760982513E0,1.096177899E1
1.711576572E0,6.525396824E0,1.207874775E0,8.899846077E0,1.110166768E1
1.714090166E0,6.501454830E0,1.289277673E0,9.091382027E0,1.125097236E1
1.716603760E0,6.424840450E0,1.413776159E0,9.455301285E0,1.151868309E1
1.719117354E0,6.242880821E0,1.576581836E0,9.814431190E0,1.173806759E1
1.721630947E0,5.993884087E0,1.758541107E0,1.013525391E1,1.190556530E1
1.724144385E0,5.787982464E0,1.806425214E0,1.039382839E1,1.203310358E1
1.726657822E0,5.443217754E0,1.873462796E0,1.055663395E1,1.202418408E1
1.729171260E0,5.313930511E0,1.969230890E0,1.082478428E1,1.221849755E1
1.731684697E0,5.347449303E0,1.950077295E0,1.124616432E1,1.260453202E1
1.734198135E0,5.395333767E0,1.959654093E0,1.143291187E1,1.279301937E1
1.736711572E0,5.457582951E0,1.997961283E0,1.141375828E1,1.280823715E1
1.739225010E0,5.419275761E0,2.093729496E0,1.147121906E1,1.285850379E1
1.741738500E0,5.404910564E0,2.155978680E0,1.157656384E1,1.295677940E1
1.744252041E0,5.481524944E0,2.165555477E0,1.171063900E1,1.311014157E1
1.746765635E0,5.538985729E0,2.127248287E0,1.177767658E1,1.318784341E1
1.749279281E0,5.792770863E0,1.964442492E0,1.172500420E1,1.322463428E1
1.751792979E0,6.118382454E0,1.739387512E0,1.163402462E1,1.325935902E1
1.754306729E0,6.602011204E0,1.480813742E0,1.147600746E1,1.332209100E1
1.756820531E0,7.143100739E0,1.136048675E0,1.134672070E1,1.345594907E1
1.759334385E0,7.449558735E0,9.971849918E-1,1.116476154E1,1.345890796E1
1.761848291E0,7.497442722E0,1.045069098E0,1.096364784E1,1.332311491E1
1.764362250E0,7.497442722E0,1.092953086E0,1.088703346E1,1.326399983E1
1.766876260E0,7.588422298E0,1.097741485E0,1.099716663E1,1.340622480E1
1.769390270E0,7.631517887E0,1.318008065E0,1.108814621E1,1.352494720E1
1.771904281E0,7.540538311E0,1.595735431E0,1.119828033E1,1.359439488E1
1.774418031E0,7.559691906E0,1.825578809E0,1.138023949E1,1.378374153E1
1.776931000E0,7.669825077E0,1.993172884E0,1.162923622E1,1.407260068E1
1.779443968E0,7.784746647E0,2.112883091E0,1.181119537E1,1.430282809E1
1.781956937E0,7.808688641E0,2.199074268E0,1.194048214E1,1.443560389E1
1.784469906E0,7.746439457E0,2.290053844E0,1.201230812E1,1.447574583E1
1.786982875E0,7.645883083E0,2.323572636E0,1.213201809E1,1.452736662E1
1.789495843E0,7.621941090E0,2.323572636E0,1.227088261E1,1.463104698E1
1.792008812E0,7.597999096E0,2.347514868E0,1.239538097E1,1.472704607E1
1.794521833E0,7.626729488E0,2.352303267E0,1.248157215E1,1.481519412E1
1.797034906E0,7.775169849E0,2.280477047E0,1.260128212E1,1.498152705E1
1.799547979E0,7.995436668E0,2.179920673E0,1.264916611E1,1.512218453E1
1.802061052E0,8.172607422E0,2.079364061E0,1.261085892E1,1.517066345E1
1.804574125E0,8.129511833E0,2.103306293E0,1.243847656E1,1.500761671E1
1.807087250E0,8.057685852E0,2.088941097E0,1.232355499E1,1.487144861E1
1.809600427E0,8.105569839E0,1.954865694E0,1.235228539E1,1.490304387E1
1.812113656E0,8.177395821E0,1.725022316E0,1.242411137E1,1.497344475E1
1.814626937E0,8.210914612E0,1.519120932E0,1.247199535E1,1.500924766E1
1.817140270E0,8.225279808E0,1.356315255E0,1.241932297E1,1.495775391E1
1.819653656E0,8.234856606E0,1.222239971E0,1.236186218E1,1.490377034E1
1.822167093E0,8.239645004E0,1.131260276E0,1.230918980E1,1.485555967E1
1.824680583E0,8.249221802E0,1.107318282E0,1.226609421E1,1.482338967E1
1.827194072E0,8.258798599E0,1.145625472E0,1.220863342E1,1.478414496E1
1.829707562E0,8.301894188E0,1.236605167E0,1.214159584E1,1.476038580E1
1.832221052E0,8.340201378E0,1.332373261E0,1.202188492E1,1.469217120E1
1.834734541E0,8.416815758E0,1.408987641E0,1.194048214E1,1.467661907E1
1.837248031E0,8.488641739E0,1.461660147E0,1.182556057E1,1.463001612E1
1.839761520E0,8.536525726E0,1.528697729E0,1.167233181E1,1.454140702E1
1.842275010E0,8.555679321E0,1.576581836E0,1.152867985E1,1.444284314E1
1.844788500E0,8.555679321E0,1.581370234E0,1.135150909E1,1.430234733E1
1.847301989E0,8.570044518E0,1.586158633E0,1.117433834E1,1.417135842E1
1.849815479E0,8.579621315E0,1.634042621E0,1.104505062E1,1.408094956E1
1.852328916E0,8.641871452E0,1.677138329E0,1.094449425E1,1.404552204E1
1.854842354E0,8.723274231E0,1.744175911E0,1.081520748E1,1.400379862E1
1.857355791E0,8.799888611E0,1.825578809E0,1.065240192E1,1.393716055E1
1.859869229E0,8.871714592E0,1.911770105E0,1.047523117E1,1.385974938E1
1.862382666E0,8.938752174E0,2.012326479E0,1.029806042E1,1.378407765E1
1.864896104E0,9.001001358E0,2.122459888E0,1.013525391E1,1.372028546E1
1.867409541E0,9.010578156E0,2.208651066E0,9.986813545E0,1.363103455E1
1.869922979E0,9.044096947E0,2.285265446E0,9.929352760E0,1.362388249E1
1.872436416E0,9.063250542E0,2.318784237E0,9.852738380E0,1.358660091E1
1.874949854E0,9.106346130E0,2.333149672E0,9.833584785E0,1.360398901E1
1.877463343E0,9.144653320E0,2.347514868E0,9.819219589E0,1.362176875E1
1.879976885E0,9.168595314E0,2.347514868E0,9.809642792E0,1.363095953E1
1.882490479E0,9.154230118E0,2.333149672E0,9.795277596E0,1.360848925E1
1.885004177E0,9.144653320E0,2.323572636E0,9.795277596E0,1.360040945E1
1.887517979E0,9.144653320E0,2.328361034E0,9.776124001E0,1.358744089E1
1.890031833E0,9.111134529E0,2.323572636E0,9.752182007E0,1.354683786E1
1.892545739E0,9.024943352E0,2.313995838E0,9.723451614E0,1.346661392E1
1.895059697E0,8.929175377E0,2.318784237E0,9.661202431E0,1.335835939E1
1.897573656E0,8.828619003E0,2.294842243E0,9.608530045E0,1.324894954E1
1.900087614E0,8.680178642E0,2.251746655E0,9.531915665E0,1.308714180E1
1.902601572E0,8.517372131E0,2.218227863E0,9.450512886E0,1.291426950E1
1.905115114E0,8.335412979E0,2.184709072E0,9.335591316E0,1.270453968E1
1.907628604E0,8.148665428E0,2.151190281E0,9.215881348E0,1.248842812E1
1.910141989E0,7.928399086E0,2.132036686E0,9.105747223E0,1.226049448E1
1.912655375E0,7.712920666E0,2.108094692E0,8.990825653E0,1.203196386E1
1.915168760E0,7.487865925E0,2.088941097E0,8.856750488E0,1.178447454E1
1.917682145E0,7.267599106E0,2.117671490E0,8.765770912E0,1.158193719E1
1.920195531E0,7.018602371E0,2.141613483E0,8.655637741E0,1.134757032E1
1.922708968E0,6.798335552E0,2.146401882E0,8.574234962E0,1.115087048E1
1.925222458E0,6.611588001E0,2.151190281E0,8.488043785E0,1.097212845E1
1.927736000E0,6.458359241E0,2.146401882E0,8.435371399E0,1.083849324E1
1.930249593E0,6.309918404E0,2.160767078E0,8.387487411E0,1.071605943E1
1.932763239E0,6.171054840E0,2.184709072E0,8.363545418E0,1.062091161E1
1.935276937E0,6.046556473E0,2.199074268E0,8.310873032E0,1.051034649E1
1.937790687E0,5.946000099E0,2.213439465E0,8.239047050E0,1.039885223E1
1.940304489E0,5.840654850E0,2.237381458E0,8.219893456E0,1.032888054E1
1.942818291E0,5.759252071E0,2.227804661E0,8.181585312E0,1.025038713E1
1.945332093E0,5.697002888E0,2.242169857E0,8.138489723E0,1.018421242E1
1.947845895E0,5.629965305E0,2.223016262E0,8.100182533E0,1.011193689E1
1.950359697E0,5.577292919E0,2.242169857E0,8.023568153E0,1.002552582E1
1.952873500E0,5.548562527E0,2.227804661E0,7.990049839E0,9.979506809E0
1.955386781E0,5.500678539E0,2.213439465E0,7.975684643E0,9.938225404E0
1.957899958E0,5.491101742E0,2.218227863E0,7.999626637E0,9.953228598E0
1.960413135E0,5.495890141E0,2.213439465E0,8.009202957E0,9.962502432E0
1.962926312E0,5.519832134E0,2.213439465E0,7.999626637E0,9.968043307E0
1.965439489E0,5.543774128E0,2.199074268E0,8.033144951E0,1.000503758E1
1.967952666E0,5.558139324E0,2.203862667E0,8.023568153E0,1.000637643E1
1.970465895E0,5.572504520E0,2.218227863E0,7.975684643E0,9.979222766E0
1.972979177E0,5.610811710E0,2.218227863E0,7.961318970E0,9.989211312E0
1.975492510E0,5.653907299E0,2.208651066E0,7.913434982E0,9.973327454E0
1.978005843E0,5.701791286E0,2.261323452E0,7.879916191E0,9.985844321E0
1.980519177E0,5.773617268E0,2.285265446E0,7.784148216E0,9.957412212E0
1.983032562E0,5.840654850E0,2.299630642E0,7.678803444E0,9.917941949E0
1.985546000E0,5.902904510E0,2.304419041E0,7.578247070E0,9.878484572E0
1.988059437E0,5.965153694E0,2.337938070E0,7.444171429E0,9.821644530E0
1.990572875E0,5.979518890E0,2.337938070E0,7.290942669E0,9.714856951E0
1.993086312E0,5.989095688E0,2.342726469E0,7.108983517E0,9.586202643E0
1.995599750E0,6.013037682E0,2.333149672E0,6.898293495E0,9.443869053E0
1.998113187E0,6.013037682E0,2.304419041E0,6.687603951E0,9.283911669E0
2.000626625E0,6.003460884E0,2.294842243E0,6.496067524E0,9.138202054E0
2.003140062E0,5.998672485E0,2.304419041E0,6.333261967E0,9.022451210E0
2.005653500E0,5.989095688E0,2.313995838E0,6.189610004E0,8.918246235E0
2.008166937E0,5.969942093E0,2.342726469E0,6.031592846E0,8.803901871E0
2.010680375E0,5.936423302E0,2.390610456E0,5.926247597E0,8.722187257E0
2.013193656E0,5.912481308E0,2.390610456E0,5.830479622E0,8.641003772E0
2.015706937E0,5.874173641E0,2.390610456E0,5.710769653E0,8.534273511E0
2.018220218E0,5.835866451E0,2.390610456E0,5.638943672E0,8.459907879E0
2.020733500E0,5.845443249E0,2.419340849E0,5.552752495E0,8.417569553E0
2.023246729E0,5.811924458E0,2.438494444E0,5.480926037E0,8.352560761E0
2.025759854E0,5.764040470E0,2.443282843E0,5.466560841E0,8.311262300E0
2.028272979E0,5.697002888E0,2.467224836E0,5.437830448E0,8.253062479E0
2.030786052E0,5.634753704E0,2.443282843E0,5.418676853E0,8.190368685E0
2.033299125E0,5.567716122E0,2.419340849E0,5.409100056E0,8.130869349E0
2.035812197E0,5.500678539E0,2.404975653E0,5.404311657E0,8.077620737E0
2.038325270E0,5.462371349E0,2.395398855E0,5.413888454E0,8.055161366E0
2.040838395E0,5.419275761E0,2.404975653E0,5.442618847E0,8.048264258E0
2.043351572E0,5.347449303E0,2.376245260E0,5.452195644E0,7.998011811E0
2.045864802E0,5.280411720E0,2.390610456E0,5.466560841E0,7.967499841E0
2.048378083E0,5.232527733E0,2.371456861E0,5.490502834E0,7.946620382E0
2.050891416E0,5.194220543E0,2.381033659E0,5.504868031E0,7.934281339E0
2.053404802E0,5.103240967E0,2.381033659E0,5.524022102E0,7.888422519E0
2.055918239E0,5.050568581E0,2.385822058E0,5.547964096E0,7.872756537E0
2.058431729E0,4.959589005E0,2.409764051E0,5.581482887E0,7.845854772E0
2.060945270E0,4.859032154E0,2.452859640E0,5.591059685E0,7.802990599E0
2.063458864E0,4.772840977E0,2.495955229E0,5.615001678E0,7.780619984E0
2.065972510E0,4.734533787E0,2.505532026E0,5.629366875E0,7.770667431E0
2.068486156E0,4.691438198E0,2.539050817E0,5.658097267E0,7.776273922E0
2.070999802E0,4.562151432E0,2.591723442E0,5.691616058E0,7.741107766E0
2.073513447E0,4.509479046E0,2.610877037E0,5.691616058E0,7.716642633E0
2.076027093E0,4.432864666E0,2.663549423E0,5.686827660E0,7.686663353E0
2.078540583E0,4.270058632E0,2.754528999E0,5.672462463E0,7.615619550E0
2.081053708E0,4.203021049E0,2.797624588E0,5.662885666E0,7.586854641E0
2.083566312E0,4.226963043E0,2.807201385E0,5.638943672E0,7.585860658E0
2.086078916E0,4.294000626E0,2.788047791E0,5.581482887E0,7.573942373E0
2.088591520E0,4.384980202E0,2.759317398E0,5.504868031E0,7.559461350E0
2.091104125E0,4.471171856E0,2.725798607E0,5.485714436E0,7.583826124E0
2.093616729E0,4.600458622E0,2.687491417E0,5.480926037E0,7.643780470E0
2.096129333E0,4.667496204E0,2.649184227E0,5.456984043E0,7.653912250E0
2.098641937E0,4.748898983E0,2.634819031E0,5.442618847E0,7.688719841E0
2.101154541E0,4.868608952E0,2.615665436E0,5.418676853E0,7.739968839E0
2.103667197E0,4.935647011E0,2.625242233E0,5.404311657E0,7.775544527E0
2.106179906E0,4.902127743E0,2.687491417E0,5.404311657E0,7.775606151E0
2.108692666E0,4.772840977E0,2.807201385E0,5.413888454E0,7.744067330E0
2.111205531E0,4.653131008E0,2.931699991E0,5.423465252E0,7.724018925E0
2.113718500E0,4.542997837E0,3.027467966E0,5.433042049E0,7.702099554E0
2.116231572E0,4.490325451E0,3.084928989E0,5.437830448E0,7.697389785E0
2.118744697E0,4.437653065E0,3.128024578E0,5.433042049E0,7.680836438E0
2.121257875E0,4.365826607E0,3.166331768E0,5.428253651E0,7.651930248E0
2.123771052E0,3.958812475E0,3.290830135E0,5.361216068E0,7.432657460E0
2.126284229E0,3.973177671E0,3.300406933E0,5.413888454E0,7.482580767E0
2.128797145E0,3.982754469E0,3.305195332E0,5.404311657E0,7.482862676E0
2.131309750E0,4.078522682E0,3.271676540E0,5.337274075E0,7.471593485E0
2.133822250E0,4.174290657E0,3.209427357E0,5.260659695E0,7.443095248E0
2.136334645E0,4.236539841E0,3.175908566E0,5.155314922E0,7.389988971E0
2.138847041E0,4.303577423E0,3.161543369E0,5.069123745E0,7.362890102E0
2.141359437E0,4.351461411E0,3.142389774E0,5.006874084E0,7.340205583E0
2.143871833E0,4.370615005E0,3.147178173E0,4.958990097E0,7.321105706E0
2.146384281E0,4.404133797E0,3.151966572E0,4.906317711E0,7.307752134E0
2.148896833E0,4.265270233E0,3.199850559E0,4.844068527E0,7.203927655E0
2.151409489E0,3.977966070E0,3.333925962E0,4.815338135E0,7.080025263E0
2.153922302E0,3.733757496E0,3.458424330E0,4.791396141E0,6.989929961E0
2.156435270E0,3.609259129E0,3.549403906E0,4.824914932E0,6.993198385E0
2.158948395E0,3.594893932E0,3.640383720E0,4.844068527E0,7.045612529E0
2.161461677E0,3.642777920E0,3.669114113E0,4.858433723E0,7.094829638E0
2.163975114E0,3.709815502E0,3.683479309E0,4.872798920E0,7.146671966E0
2.166488656E0,3.800795317E0,3.697844505E0,4.868010521E0,7.198446045E0
2.169002302E0,3.848679304E0,3.731363297E0,4.868010521E0,7.241058684E0
2.171516052E0,3.896563292E0,3.760093689E0,4.882375717E0,7.291028918E0
2.174029854E0,3.949235678E0,3.764882088E0,4.887164116E0,7.324969124E0
2.176543708E0,3.997119665E0,3.793612480E0,4.887164116E0,7.365652338E0
2.179057562E0,4.049792290E0,3.817554712E0,4.891952515E0,7.409840820E0
2.181571416E0,4.092887878E0,3.827131510E0,4.863222122E0,7.419541508E0
2.184084906E0,4.131195068E0,3.846285105E0,4.887164116E0,7.466261106E0
2.186598083E0,4.183867455E0,3.875015497E0,4.906317711E0,7.522795056E0
2.189111260E0,4.246116638E0,3.894169092E0,4.906317711E0,7.567431064E0
2.191624437E0,4.294000626E0,3.913322687E0,4.944624901E0,7.629013779E0
2.194137614E0,4.337096214E0,3.913322687E0,4.968566895E0,7.668843134E0
2.196650791E0,4.356249809E0,3.908534288E0,4.997297287E0,7.695877654E0
2.199163968E0,4.394556999E0,3.894169092E0,5.059546947E0,7.750851531E0
2.201677145E0,4.437653065E0,3.875015497E0,5.121796131E0,7.806491237E0
2.204190322E0,4.461595058E0,3.846285105E0,5.241506100E0,7.884993707E0
2.206703500E0,4.504690647E0,3.846285105E0,5.361216068E0,7.989291875E0
2.209216625E0,4.590881824E0,3.841496706E0,5.495291233E0,8.125978009E0
2.211729593E0,4.643554211E0,3.827131510E0,5.634155273E0,8.243375337E0
2.214242562E0,4.705803394E0,3.803189516E0,5.749076843E0,8.346299817E0
2.216755531E0,4.768052578E0,3.798400879E0,5.868786812E0,8.461963913E0
2.219268500E0,4.811148167E0,3.803189516E0,5.964554787E0,8.554958269E0
2.221781468E0,4.854243755E0,3.827131510E0,6.079476833E0,8.670101303E0
2.224294437E0,4.892550945E0,3.851073503E0,6.218340397E0,8.799748813E0
2.226807458E0,4.950012207E0,3.898957491E0,6.347627163E0,8.944096431E0
2.229320531E0,4.988319397E0,3.937264681E0,6.486490726E0,9.080745868E0
2.231833656E0,5.040991783E0,3.970783472E0,6.610989571E0,9.213246043E0
2.234346781E0,5.093664169E0,4.013879299E0,6.721122742E0,9.339707308E0
2.236859906E0,5.112817764E0,4.061763287E0,6.821679115E0,9.443205623E0
2.239373031E0,5.112817764E0,4.104858875E0,6.927023888E0,9.538051783E0
2.241886156E0,5.122394562E0,4.143166065E0,7.037157536E0,9.639830770E0
2.244399281E0,5.122394562E0,4.191050053E0,7.099406719E0,9.705946752E0
2.246912406E0,5.084087372E0,4.224568844E0,7.113771915E0,9.710853577E0
2.249425583E0,5.045780182E0,4.248510838E0,7.118560314E0,9.704825755E0
2.251938812E0,5.012261391E0,4.243722439E0,7.089829922E0,9.664245066E0
2.254452093E0,4.969165802E0,4.238934040E0,7.046734333E0,9.608206665E0
2.256965427E0,4.911705017E0,4.258087635E0,6.989273548E0,9.544951609E0
2.259478812E0,4.844666958E0,4.286818027E0,6.912658691E0,9.467441942E0
2.261992250E0,4.782417774E0,4.320336819E0,6.831255913E0,9.391639225E0
2.264505739E0,4.681861401E0,4.363432407E0,6.735487938E0,9.291187562E0
2.267019281E0,4.614823818E0,4.392162800E0,6.644508362E0,9.205280240E0
2.269532875E0,4.562151432E0,4.440047264E0,6.543951988E0,9.129652404E0
2.272046468E0,4.514267445E0,4.468777657E0,6.472125530E0,9.068461456E0
2.274560062E0,4.480748653E0,4.511873245E0,6.409876347E0,9.028877198E0
2.277073187E0,4.442441463E0,4.531026840E0,6.338050365E0,8.968632717E0
2.279586312E0,4.404133797E0,4.545392036E0,6.275801182E0,8.913061412E0
2.282099437E0,4.361038208E0,4.569334030E0,6.227917194E0,8.870423908E0
2.284612562E0,4.298789024E0,4.583699226E0,6.141726017E0,8.786961030E0
2.287125687E0,4.246116638E0,4.602852821E0,6.060323238E0,8.714544070E0
2.289638864E0,4.222174644E0,4.641160011E0,6.002861977E0,8.683402380E0
2.292152093E0,4.226963043E0,4.684255600E0,5.935824394E0,8.662763897E0
2.294665427E0,4.231751442E0,4.712985992E0,5.883152008E0,8.644734512E0
2.297178864E0,4.231751442E0,4.708197594E0,5.863998413E0,8.629097417E0
2.299692406E0,4.255693436E0,4.736927986E0,5.825691223E0,8.630648388E0
2.302206052E0,4.279635429E0,4.727351189E0,5.796960831E0,8.617881616E0
2.304719802E0,4.322731018E0,4.746504784E0,5.773018837E0,8.633832151E0
2.307233604E0,4.361038208E0,4.760869980E0,5.705981255E0,8.616423811E0
2.309747458E0,4.404133797E0,4.770446777E0,5.686827660E0,8.630965519E0
2.312261364E0,4.413711071E0,4.756081581E0,5.643732071E0,8.599585404E0
2.314775322E0,4.437653065E0,4.770446777E0,5.629366875E0,8.610441254E0
2.317289281E0,4.456806660E0,4.784811974E0,5.653308868E0,8.643925751E0
2.319803239E0,4.504690647E0,4.789600372E0,5.705981255E0,8.705787249E0
2.322316885E0,4.566939831E0,4.770446777E0,5.830479622E0,8.809574025E0
2.324830375E0,4.653131008E0,4.756081581E0,5.983708382E0,8.948558889E0
2.327343656E0,4.758475780E0,4.708197594E0,6.199186802E0,9.123603090E0
2.329856833E0,4.897339344E0,4.665102005E0,6.400299549E0,9.311871116E0
2.332370010E0,5.017049789E0,4.650736809E0,6.596624374E0,9.503451720E0
2.334883187E0,5.093664169E0,4.645948410E0,6.836044312E0,9.708849217E0
2.337396364E0,5.165490150E0,4.650736809E0,7.104195118E0,9.938874666E0
2.339909593E0,5.270834923E0,4.693832397E0,7.420229435E0,1.024077967E1
2.342422875E0,5.390544891E0,4.736927986E0,7.736264229E0,1.055207303E1
2.344936208E0,5.534197330E0,4.784811974E0,8.095394135E0,1.091133227E1
2.347449541E0,5.663484097E0,4.818330765E0,8.430583000E0,1.124126742E1
2.349962875E0,5.764040470E0,4.827907562E0,8.780136108E0,1.155956937E1
2.352476208E0,5.926846504E0,4.827907562E0,9.139266014E0,1.191479686E1
2.354989541E0,6.080075264E0,4.847061157E0,9.503185272E0,1.227891882E1
2.357502875E0,6.223727226E0,4.880579948E0,9.814431190E0,1.260467774E1
2.360016208E0,6.372167587E0,4.899733543E0,1.007300472E1,1.288709947E1
2.362529541E0,6.530185223E0,4.914099216E0,1.029806042E1,1.314692886E1
2.365042875E0,6.645106792E0,4.928464413E0,1.049917316E1,1.336711797E1
2.367556208E0,6.736086369E0,4.957194805E0,1.064761353E1,1.353958322E1
2.370069541E0,6.817489147E0,4.981136799E0,1.076253510E1,1.367925597E1
2.372582875E0,6.874950409E0,4.966771603E0,1.079605389E1,1.372911296E1
2.375096208E0,6.870162010E0,4.952406406E0,1.081041908E1,1.373282986E1
2.377609541E0,6.879738808E0,4.947618008E0,1.077690029E1,1.370953354E1
2.380122614E0,6.851007938E0,4.933252811E0,1.070507431E1,1.363348485E1
2.382635270E0,6.793547153E0,4.899733543E0,1.059015274E1,1.350225932E1
2.385147927E0,6.750451565E0,4.866214752E0,1.050874996E1,1.340456893E1
2.387660583E0,6.712144375E0,4.823119164E0,1.040819359E1,1.329081842E1
2.390173083E0,6.635529995E0,4.760869980E0,1.030763721E1,1.315079945E1
2.392685427E0,6.563704014E0,4.689043999E0,1.022144604E1,1.302103310E1
2.395197770E0,6.443994045E0,4.593276024E0,1.009694672E1,1.282854539E1
2.397710114E0,6.319495201E0,4.502296448E0,9.948506355E0,1.261663472E1
2.400222458E0,6.142324448E0,4.411316395E0,9.843161583E0,1.241272299E1
2.402734802E0,5.960365295E0,4.320336819E0,9.699509621E0,1.217668886E1
2.405247145E0,5.768828869E0,4.205415249E0,9.551069260E0,1.192425377E1
2.407759489E0,5.543774128E0,4.114435673E0,9.402628899E0,1.166496647E1
2.410271833E0,5.313930511E0,4.023456097E0,9.220669746E0,1.137746927E1
2.412784177E0,5.074510574E0,3.903745890E0,9.062651634E0,1.109601479E1
2.415296520E0,4.839878559E0,3.798400879E0,8.904634476E0,1.082334462E1
2.417808864E0,4.624400616E0,3.669114113E0,8.746617317E0,1.055228856E1
2.420321260E0,4.408922195E0,3.554192305E0,8.569446564E0,1.027162559E1
2.422833708E0,4.212597847E0,3.415328741E0,8.416217804E0,1.001215128E1
2.425346208E0,4.006696701E0,3.290830135E0,8.282142639E0,9.771236776E0
2.427858760E0,3.800795317E0,3.214215755E0,8.133701324E0,9.535949098E0
2.430371416E0,3.637989521E0,3.137601376E0,8.037933350E0,9.364180833E0
2.432884177E0,3.527856112E0,3.089717388E0,7.956530571E0,9.235718760E0
2.435397041E0,3.499125719E0,3.037044764E0,7.865550995E0,9.128768490E0
2.437909958E0,3.542221308E0,3.017891169E0,7.784148216E0,9.069066234E0
2.440422927E0,3.590105534E0,2.979583979E0,7.736264229E0,9.034188544E0
2.442935947E0,3.705027103E0,2.946065187E0,7.674015045E0,9.016486724E0
2.445449020E0,3.815160513E0,2.912546396E0,7.587823868E0,8.978499167E0
2.447962093E0,3.939658880E0,2.869450808E0,7.487267494E0,8.933858884E0
2.450475166E0,4.040215492E0,2.826355219E0,7.415441036E0,8.905076687E0
2.452988239E0,4.135983467E0,2.802412987E0,7.348403454E0,8.885882686E0
2.455500583E0,4.284423828E0,2.773682594E0,7.295731068E0,8.903779786E0
2.458012927E0,4.447229862E0,2.744952202E0,7.276577473E0,8.958861298E0
2.460525270E0,4.633977413E0,2.701856613E0,7.329249859E0,9.082493012E0
2.463037614E0,4.839878559E0,2.673126221E0,7.448959827E0,9.276692879E0
2.465549958E0,5.045780182E0,2.658761024E0,7.635707855E0,9.530631788E0
2.468062354E0,5.246892929E0,2.634819031E0,7.884704590E0,9.830601365E0
2.470574854E0,5.419275761E0,2.630030632E0,8.186373711E0,1.016377516E1
2.473087458E0,5.572504520E0,2.630030632E0,8.497620583E0,1.049663867E1
2.475600166E0,5.668272495E0,2.620453835E0,8.804078102E0,1.079388172E1
2.478113031E0,5.725733280E0,2.630030632E0,9.115324020E0,1.108107462E1
2.480626052E0,5.768828869E0,2.658761024E0,9.349956512E0,1.130354296E1
2.483139177E0,5.850231647E0,2.610877037E0,9.551069260E0,1.150064404E1
2.485652406E0,5.946000099E0,2.539050817E0,9.771335602E0,1.171668450E1
2.488165739E0,6.060921669E0,2.472013235E0,9.977236748E0,1.193276473E1
2.490679177E0,6.190208435E0,2.390610456E0,1.013525391E1,1.211433327E1
2.493192718E0,6.309918404E0,2.328361034E0,1.030284882E1,1.230386236E1
2.495706312E0,6.463147640E0,2.251746655E0,1.046086597E1,1.250089426E1
2.498219958E0,6.621164799E0,2.184709072E0,1.059015274E1,1.267927885E1
2.500733656E0,6.798335552E0,2.093729496E0,1.071943951E1,1.286496999E1
2.503247354E0,6.994660378E0,2.036268473E0,1.085830307E1,1.307571828E1
2.505761052E0,7.219715118E0,2.002749681E0,1.094928265E1,1.326733143E1
2.508274697E0,7.449558735E0,1.950077295E0,1.100195503E1,1.342913777E1
2.510787562E0,7.655459881E0,1.892616391E0,1.099716663E1,1.353239582E1
2.513300427E0,7.856573105E0,1.863885999E0,1.098280144E1,1.363164478E1
2.515813291E0,8.014590263E0,1.820790410E0,1.089661026E1,1.364862813E1
2.518326156E0,8.134300232E0,1.772906303E0,1.078168869E1,1.362185186E1
2.520839020E0,8.244433403E0,1.720233917E0,1.059494114E1,1.353449905E1
2.523351885E0,8.354566574E0,1.696291924E0,1.042734718E1,1.346869549E1
2.525864697E0,8.450334549E0,1.691503525E0,1.021186924E1,1.336232059E1
2.528377510E0,8.550890923E0,1.705868721E0,1.001554394E1,1.327926369E1
2.530890322E0,8.689755440E0,1.734599113E0,9.756970406E0,1.318025626E1
2.533403135E0,8.828619003E0,1.758541107E0,9.474454880E0,1.306913446E1
2.535915947E0,8.938752174E0,1.777694821E0,9.211092949E0,1.295784406E1
2.538428760E0,9.024943352E0,1.787271619E0,8.942941666E0,1.283043834E1
2.540941625E0,9.082404137E0,1.801636815E0,8.655637741E0,1.267501577E1
2.543454541E0,9.082404137E0,1.825578809E0,8.368333817E0,1.248406239E1
2.545967510E0,9.039308548E0,1.825578809E0,8.100182533E0,1.227415146E1
2.548480531E0,9.010578156E0,1.859097600E0,7.769783020E0,1.204227100E1
2.550993604E0,8.957905769E0,1.887827992E0,7.487267494E0,1.182654408E1
2.553506729E0,8.905233383E0,1.906981707E0,7.243058681E0,1.163622189E1
2.556019958E0,8.847772598E0,1.926135302E0,7.013215542E0,1.145330823E1
2.558533291E0,8.790311813E0,1.950077295E0,6.807313919E0,1.128768825E1
2.561046677E0,8.713697433E0,1.964442492E0,6.634931564E0,1.112698855E1
2.563560114E0,8.646659851E0,1.959654093E0,6.563105583E0,1.103083522E1
2.566073604E0,8.565256119E0,1.959654093E0,6.500856400E0,1.093000414E1
2.568587093E0,8.479064941E0,1.964442492E0,6.438606739E0,1.082632132E1
2.571100583E0,8.407238960E0,1.930923700E0,6.400299549E0,1.074122747E1
2.573614072E0,8.316259384E0,1.906981707E0,6.400299549E0,1.066586066E1
2.576127145E0,8.239645004E0,1.897404790E0,6.414664745E0,1.061319078E1
2.578639958E0,8.148665428E0,1.863885999E0,6.472125530E0,1.057181291E1
2.581152562E0,8.048109055E0,1.863885999E0,6.553528786E0,1.054489781E1
2.583665166E0,7.942764282E0,1.849520802E0,6.654085159E0,1.052544920E1
2.586177770E0,7.818265438E0,1.830367208E0,6.759429932E0,1.049597121E1
2.588690375E0,7.693767071E0,1.830367208E0,6.864774704E0,1.047231720E1
2.591203031E0,7.593210697E0,1.825578809E0,6.979696274E0,1.047405111E1
2.593715739E0,7.487865925E0,1.772906303E0,7.046734333E0,1.043397324E1
2.596228500E0,7.392097950E0,1.744175911E0,7.142502308E0,1.042595803E1
2.598741312E0,7.272387505E0,1.701080322E0,7.228693485E0,1.039400326E1
2.601254177E0,7.167042732E0,1.643619418E0,7.286154270E0,1.035161970E1
2.603767093E0,7.056909561E0,1.576581836E0,7.348403454E0,1.030944306E1
2.606280062E0,6.961141586E0,1.504755735E0,7.396287441E0,1.026775778E1
2.608793083E0,6.870162010E0,1.447294950E0,7.468113422E0,1.025019545E1
2.611306156E0,6.793547153E0,1.389834046E0,7.511209488E0,1.022263125E1
2.613819281E0,6.726509571E0,1.351526856E0,7.559093475E0,1.020844993E1
2.616332458E0,6.712144375E0,1.332373261E0,7.583035469E0,1.021423162E1
2.618845687E0,6.740874767E0,1.294066072E0,7.606977463E0,1.024597998E1
2.621358968E0,6.803123951E0,1.270123959E0,7.645284653E0,1.031242395E1
2.623872302E0,6.884527206E0,1.265335560E0,7.664438248E0,1.037985561E1
2.626385687E0,6.941987991E0,1.270123959E0,7.669226646E0,1.042216146E1
2.628899072E0,6.975506783E0,1.274912357E0,7.650073051E0,1.043104569E1
2.631412458E0,6.956353188E0,1.298854470E0,7.616554260E0,1.039662308E1
2.633925270E0,6.889315605E0,1.318008065E0,7.549516678E0,1.030509664E1
2.636437718E0,6.798335552E0,1.341950059E0,7.434594631E0,1.016323736E1
2.638950166E0,6.716932774E0,1.351526856E0,7.300519466E0,1.001206249E1
2.641462614E0,6.611588001E0,1.351526856E0,7.123348713E0,9.812329878E0
2.643975062E0,6.482301235E0,1.356315255E0,6.931812286E0,9.586962081E0
2.646487562E0,6.348225594E0,1.361103654E0,6.716334343E0,9.341398094E0
2.649000114E0,6.199785233E0,1.346738458E0,6.510433197E0,9.090477535E0
2.651512770E0,6.051344872E0,1.346738458E0,6.280589581E0,8.824867404E0
2.654025531E0,5.898116112E0,1.327584863E0,6.089053631E0,8.580607750E0
2.656538447E0,5.744886875E0,1.298854470E0,5.868786812E0,8.314650130E0
2.659051520E0,5.606023312E0,1.274912357E0,5.677250862E0,8.079856202E0
2.661564750E0,5.438429356E0,1.236605167E0,5.500079632E0,7.833044246E0
2.664078135E0,5.218162537E0,1.212663174E0,5.327697277E0,7.555404060E0
2.666591677E0,5.045780182E0,1.203086376E0,5.179256916E0,7.330212594E0
2.669105375E0,4.854243755E0,1.198297977E0,5.049970150E0,7.106461777E0
2.671619177E0,4.681861401E0,1.217451572E0,4.973355293E0,6.938031232E0
2.674133031E0,4.523844242E0,1.222239971E0,4.858433723E0,6.750067816E0
2.676646937E0,4.365826607E0,1.250970364E0,4.772242546E0,6.587842418E0
2.679160843E0,4.246116638E0,1.274912357E0,4.709993362E0,6.468303139E0
2.681674750E0,4.126406670E0,1.294066072E0,4.642955780E0,6.344988367E0
2.684188343E0,4.021061897E0,1.294066072E0,4.609436989E0,6.252236011E0
2.686701781E0,3.915716887E0,1.294066072E0,4.561553001E0,6.149407412E0
2.689214802E0,3.839102507E0,1.298854470E0,4.528033733E0,6.076908793E0
2.691727822E0,3.781641483E0,1.284489155E0,4.532822132E0,6.041291350E0
2.694240843E0,3.743334293E0,1.279700756E0,4.532822132E0,6.016366191E0
2.696753864E0,3.724180698E0,1.289277673E0,4.566341400E0,6.031851505E0
2.699266885E0,3.705027103E0,1.289277673E0,4.590283394E0,6.038225268E0
2.701779958E0,3.709815502E0,1.270123959E0,4.590283394E0,6.037105893E0
2.704293083E0,3.709815502E0,1.246181965E0,4.575918198E0,6.021189907E0
2.706806260E0,3.738545895E0,1.246181965E0,4.585494995E0,6.046193782E0
2.709319489E0,3.752911091E0,1.241393566E0,4.609436989E0,6.072257323E0
2.711832770E0,3.757699490E0,1.260547161E0,4.609436989E0,6.079160629E0
2.714346104E0,3.767276287E0,1.270123959E0,4.628590584E0,6.101592930E0
2.716859489E0,3.824737310E0,1.260547161E0,4.633378983E0,6.138875747E0
2.719372927E0,3.853467703E0,1.236605167E0,4.619013786E0,6.141147615E0
2.721886416E0,3.891774893E0,1.203086376E0,4.575918198E0,6.126365643E0
2.724399906E0,3.939658880E0,1.198297977E0,4.542399406E0,6.131086568E0
2.726913395E0,3.949235678E0,1.164779186E0,4.518456936E0,6.113070102E0
2.729426885E0,3.958812475E0,1.150413871E0,4.513668537E0,6.113006785E0
2.731940375E0,3.958812475E0,1.150413871E0,4.537611008E0,6.130706480E0
2.734453864E0,3.939658880E0,1.136048675E0,4.537611008E0,6.115671046E0
2.736967354E0,3.920505285E0,1.145625472E0,4.532822132E0,6.101581426E0
2.739480843E0,3.891774893E0,1.145625472E0,4.518456936E0,6.072464295E0
2.741994333E0,3.858256102E0,1.164779186E0,4.504091740E0,6.043979905E0
2.744507822E0,3.853467703E0,1.179144382E0,4.494514942E0,6.036576793E0
2.747021312E0,3.805583715E0,1.179144382E0,4.475361347E0,5.991803408E0
2.749534802E0,3.776853085E0,1.179144382E0,4.460996151E0,5.962842221E0
2.752048291E0,3.748122692E0,1.183932781E0,4.480149746E0,5.960022004E0
2.754561781E0,3.728969097E0,1.193509579E0,4.451419353E0,5.928305821E0
2.757075270E0,3.709815502E0,1.179144382E0,4.437054157E0,5.902589443E0
2.759588760E0,3.681085110E0,1.179144382E0,4.408323765E0,5.862941879E0
2.762102250E0,3.666719913E0,1.174355984E0,4.413112164E0,5.856578000E0
2.764615739E0,3.661931515E0,1.140837073E0,4.393958569E0,5.832505769E0
2.767129072E0,3.661931515E0,1.145625472E0,4.393958569E0,5.833444269E0
2.769642406E0,3.671508312E0,1.126471877E0,4.365228176E0,5.814131853E0
2.772155531E0,3.705027103E0,1.102529883E0,4.360439777E0,5.827197700E0
2.774668604E0,3.733757496E0,1.088164687E0,4.355651379E0,5.839241933E0
2.777181625E0,3.781641483E0,1.054645896E0,4.341286182E0,5.853191949E0
2.779694645E0,3.843890905E0,1.001973391E0,4.336497784E0,5.880872469E0
2.782207666E0,3.910928488E0,9.636662006E-1,4.317344189E0,5.904530043E0
2.784720687E0,3.977966070E0,8.726865053E-1,4.283825397E0,5.910749177E0
2.787233708E0,4.021061897E0,8.295909166E-1,4.269460201E0,5.923297247E0
2.789746729E0,4.078522682E0,7.769184709E-1,4.231153011E0,5.927951196E0
2.792259802E0,4.121618271E0,7.386112213E-1,4.250306606E0,5.966438632E0
2.794772927E0,4.198232651E0,6.955155730E-1,4.231153011E0,6.000962848E0
2.797286104E0,4.270058632E0,6.619967818E-1,4.226364613E0,6.044319507E0
2.799799333E0,4.332307816E0,6.284779310E-1,4.178480625E0,6.051741555E0
2.802312666E0,4.394556999E0,6.093243361E-1,4.159327030E0,6.081398582E0
2.804826104E0,4.490325451E0,5.997475386E-1,4.168903828E0,6.156498915E0
2.807339645E0,4.595670223E0,5.662286878E-1,4.178480625E0,6.237026540E0
2.809853291E0,4.696226597E0,5.374982953E-1,4.183269024E0,6.312146100E0
2.812367041E0,4.830301762E0,5.231330991E-1,4.216787815E0,6.433256005E0
2.814880843E0,4.973954201E0,4.991910458E-1,4.221576214E0,6.543020543E0
2.817394697E0,5.136759758E0,4.560954273E-1,4.231153011E0,6.670605644E0
2.819908552E0,5.313930511E0,4.129997790E-1,4.231153011E0,6.805224618E0
2.822422406E0,5.481524944E0,3.890577853E-1,4.211999416E0,6.923829920E0
2.824936000E0,5.634753704E0,3.842693865E-1,4.178480625E0,7.025511554E0
2.827449281E0,5.792770863E0,3.555389643E-1,4.154538631E0,7.137422046E0
2.829962354E0,5.922058105E0,3.411737382E-1,4.135385036E0,7.231084367E0
2.832475427E0,6.075286865E0,2.980781198E-1,4.106654644E0,7.339112578E0
2.834988500E0,6.180631638E0,2.549824715E-1,4.077924252E0,7.409095066E0
2.837501312E0,6.290764809E0,1.927332431E-1,4.053982258E0,7.486363612E0
2.840014125E0,6.429628849E0,1.113303825E-1,4.010886192E0,7.578900292E0
2.842526937E0,6.511031628E0,3.950432688E-2,3.958214045E0,7.619878731E0
2.845039750E0,6.597222805E0,-4.668693244E-2,3.876811028E0,7.652136444E0
2.847552562E0,6.654683590E0,-1.711854190E-1,3.795408249E0,7.662848159E0
2.850065375E0,6.664260387E0,-2.956839204E-1,3.714005470E0,7.635026662E0
2.852578187E0,6.664260387E0,-4.249708056E-1,3.608660460E0,7.590480684E0
2.855091000E0,6.654683590E0,-5.542576909E-1,3.532046080E0,7.554294459E0
2.857603864E0,6.621164799E0,-6.835445762E-1,3.450643301E0,7.497599327E0
2.860116781E0,6.592434406E0,-8.319851160E-1,3.388393879E0,7.458793717E0
2.862629750E0,6.549338818E0,-9.612720013E-1,3.316567898E0,7.403884482E0
2.865142770E0,6.491878033E0,-1.100135684E0,3.249530315E0,7.342630740E0
2.867655843E0,6.439205647E0,-1.229422569E0,3.177704096E0,7.285097977E0
2.870168968E0,6.381744862E0,-1.344344258E0,3.072359324E0,7.209252442E0
2.872682145E0,6.324283600E0,-1.435323954E0,3.005321741E0,7.147634341E0
2.875195375E0,6.285976410E0,-1.535880446E0,2.952649355E0,7.112704576E0
2.877708656E0,6.228515625E0,-1.583764434E0,2.919130325E0,7.058614491E0
2.880221937E0,6.094440460E0,-1.612494826E0,2.837727547E0,6.913395817E0
2.882735218E0,5.730521679E0,-1.531091928E0,2.775478363E0,6.548770980E0
2.885248500E0,5.629965305E0,-1.559822440E0,2.756324768E0,6.459634789E0
2.887760895E0,5.725733280E0,-1.684320927E0,2.679710150E0,6.542308848E0
2.890273291E0,5.816712856E0,-1.866280198E0,2.579153776E0,6.630926363E0
2.892785635E0,5.955576897E0,-2.048239470E0,2.521692991E0,6.784033950E0
2.895297875E0,6.094440460E0,-2.254140854E0,2.497750998E0,6.961473663E0
2.897810114E0,6.257246017E0,-2.445677042E0,2.507327795E0,7.170854662E0
2.900322354E0,6.420052052E0,-2.622848034E0,2.545634985E0,7.387601616E0
2.902834593E0,6.573280811E0,-2.732981205E0,2.627037764E0,7.588052076E0
2.905346833E0,6.697779179E0,-2.790441990E0,2.679710150E0,7.734834123E0
2.907859072E0,6.817489147E0,-2.814383984E0,2.761113167E0,7.875446743E0
2.910371312E0,6.922834396E0,-2.800018787E0,2.813785553E0,7.980171078E0
2.912883604E0,6.985083580E0,-2.766499996E0,2.885611534E0,8.048084789E0
2.915395895E0,7.071274757E0,-2.689885616E0,2.967014551E0,8.126597484E0
2.917908239E0,7.123947144E0,-2.637213230E0,3.029263735E0,8.178138865E0
2.920420635E0,7.200561523E0,-2.613271236E0,3.129820108E0,8.274844211E0
2.922933083E0,7.243657112E0,-2.565387011E0,3.201646328E0,8.324801384E0
2.925445635E0,7.329848289E0,-2.565387011E0,3.306991100E0,8.440620629E0
2.927958291E0,7.444770336E0,-2.570175409E0,3.412335873E0,8.583381799E0
2.930471104E0,7.449558735E0,-2.589329243E0,3.469796896E0,8.616266115E0
2.932984072E0,7.372944355E0,-2.574964046E0,3.508104086E0,8.561398401E0
2.935497197E0,7.277175903E0,-2.570175409E0,3.536834478E0,8.489539969E0
2.938010427E0,7.210138321E0,-2.560598612E0,3.522469282E0,8.423214927E0
2.940523760E0,7.190984726E0,-2.594117641E0,3.479373693E0,8.399151681E0
2.943037197E0,7.224503517E0,-2.646790028E0,3.393182278E0,8.409080478E0
2.945550739E0,7.296329498E0,-2.742558002E0,3.292625904E0,8.461644869E0
2.948064333E0,7.449558735E0,-2.876633406E0,3.168127298E0,8.591156830E0
2.950577927E0,7.698555470E0,-2.962824583E0,3.077147722E0,8.804256012E0
2.953091520E0,7.995436668E0,-3.077746391E0,2.995744944E0,9.076013339E0
2.955605114E0,8.373720169E0,-3.187879562E0,2.938283920E0,9.429489804E0
2.958118708E0,8.785523415E0,-3.274070740E0,2.899976730E0,9.814011714E0
2.960631989E0,9.187748909E0,-3.369838953E0,2.832939148E0,1.018803655E1
2.963145114E0,9.609128952E0,-3.436876535E0,2.732382774E0,1.056472409E1
2.965658239E0,9.944316864E0,-3.470395327E0,2.631826162E0,1.085631570E1
2.968171364E0,1.013585281E1,-3.460818529E0,2.555211782E0,1.101098926E1
2.970684489E0,1.058596325E1,-3.556586742E0,2.464232206E0,1.143609931E1
2.973197562E0,1.102649593E1,-3.666719913E0,2.368463993E0,1.185909226E1
2.975710427E0,1.147660542E1,-3.805583715E0,2.243965626E0,1.229757379E1
2.978223291E0,1.187883186E1,-3.958812475E0,2.133832216E0,1.270165669E1
2.980736156E0,1.227626896E1,-4.092887878E0,2.033275843E0,1.309934049E1
2.983249020E0,1.262103462E1,-4.207809448E0,1.990180135E0,1.345202558E1
2.985761885E0,1.292749214E1,-4.270058632E0,1.927930951E0,1.375028624E1
2.988274802E0,1.315733528E1,-4.346673012E0,1.903988957E0,1.398693004E1
2.990787770E0,1.330577564E1,-4.408922195E0,1.903988957E0,1.414593349E1
2.993300791E0,1.342069721E1,-4.490325451E0,1.918354154E0,1.428139415E1
2.995813864E0,1.349731255E1,-4.542997837E0,1.951872945E0,1.437449419E1
2.998326937E0,1.344463921E1,-4.557363033E0,1.999756932E0,1.433620971E1
3.000840010E0,1.337760162E1,-4.566939831E0,2.138620615E0,1.429653324E1
3.003352562E0,1.334887123E1,-4.576516628E0,2.239177227E0,1.428813432E1
3.005864854E0,1.335844803E1,-4.614823818E0,2.344521999E0,1.432625269E1
3.008377145E0,1.339196682E1,-4.677073002E0,2.469020605E0,1.439846693E1
3.010889437E0,1.339196682E1,-4.748898983E0,2.636614561E0,1.445159345E1
3.013401729E0,1.337760162E1,-4.825513363E0,2.808997154E0,1.449607773E1
3.015914072E0,1.338239002E1,-4.882974148E0,3.010110140E0,1.455996436E1
3.018426468E0,1.338717842E1,-4.969165802E0,3.187281132E0,1.463105997E1
3.020938916E0,1.341112041E1,-5.036203384E0,3.393182278E0,1.472192859E1
3.023451468E0,1.343027401E1,-5.093664169E0,3.575141668E0,1.480200367E1
3.025964125E0,1.347815800E1,-5.131971359E0,3.795408249E0,1.491318198E1
3.028476885E0,1.353561974E1,-5.136759758E0,4.034828186E0,1.502927613E1
3.030989750E0,1.357392693E1,-5.093664169E0,4.279036999E0,1.511645013E1
3.033502718E0,1.359786892E1,-5.036203384E0,4.523245335E0,1.518963897E1
3.036015791E0,1.363138771E1,-5.055356979E0,4.777030945E0,1.530331303E1
3.038528968E0,1.368406010E1,-5.122394562E0,4.992508888E0,1.544077627E1
3.041042250E0,1.373194408E1,-5.170278549E0,5.217564106E0,1.557308716E1
3.043555635E0,1.373194408E1,-5.170278549E0,5.452195644E0,1.565325864E1
3.046069072E0,1.370800209E1,-5.098452568E0,5.653308868E0,1.568003320E1
3.048582562E0,1.363138771E1,-5.026626587E0,5.796960831E0,1.564245699E1
3.051096104E0,1.358350372E1,-4.916493416E0,5.931035995E0,1.561603883E1
3.053609645E0,1.348773575E1,-4.796782970E0,6.041169643E0,1.553782073E1
3.056123187E0,1.334887123E1,-4.657919407E0,6.146514416E0,1.541649168E1
3.058636520E0,1.320043087E1,-4.547786236E0,6.199186802E0,1.527624469E1
3.061149802E0,1.308550930E1,-4.418499470E0,6.247070789E0,1.515848227E1
3.063662927E0,1.297058773E1,-4.351461411E0,6.309319973E0,1.506581830E1
3.066176052E0,1.294185734E1,-4.298789024E0,6.361992359E0,1.504812962E1
3.068689177E0,1.302804852E1,-4.279635429E0,6.443395138E0,1.515132563E1
3.071202302E0,1.328662205E1,-4.294000626E0,6.572682381E0,1.543285199E1
3.073715218E0,1.370800209E1,-4.346673012E0,6.697180748E0,1.586364137E1
3.076228135E0,1.416768837E1,-4.361038208E0,6.797737122E0,1.630801269E1
3.078741052E0,1.415332317E1,-4.203021049E0,6.869563103E0,1.628412847E1
3.081253968E0,1.459385681E1,-4.126406670E0,7.075464725E0,1.673529473E1
3.083766885E0,1.517804146E1,-4.102464676E0,7.190386295E0,1.728886387E1
3.086279697E0,1.571913147E1,-4.083311081E0,7.233481884E0,1.777885777E1
3.088792197E0,1.618360710E1,-4.049792290E0,7.262212276E0,1.819477077E1
3.091304489E0,1.655710220E1,-4.001908302E0,7.247847080E0,1.851173117E1
3.093816781E0,1.686834717E1,-3.915716887E0,7.247847080E0,1.877246021E1
3.096329072E0,1.710776901E1,-3.810372114E0,7.228693485E0,1.895913252E1
3.098841416E0,1.727536201E1,-3.700238705E0,7.171232700E0,1.906715704E1
3.101353812E0,1.722269058E1,-3.542221308E0,7.022792339E0,1.893377973E1
3.103866260E0,1.681567574E1,-3.298012733E0,6.840832710E0,1.845103874E1
3.106378812E0,1.637035370E1,-3.058592558E0,6.634931564E0,1.792667804E1
3.108891468E0,1.601122475E1,-2.852691412E0,6.385934353E0,1.747218715E1
3.111404229E0,1.575743866E1,-2.732981205E0,6.055534840E0,1.710074740E1
3.113917041E0,1.555632591E1,-2.627636433E0,5.682039261E0,1.676870058E1
3.116429906E0,1.530253983E1,-2.527079821E0,5.318120480E0,1.639622710E1
3.118942822E0,1.499608231E1,-2.421735048E0,4.949413300E0,1.597635682E1
3.121455843E0,1.467047119E1,-2.330755472E0,4.628590584E0,1.555888803E1
3.123968968E0,1.433528233E1,-2.220622063E0,4.317344189E0,1.513508978E1
3.126482197E0,1.405755520E1,-2.110488892E0,4.020462990E0,1.477271621E1
3.128995531E0,1.380377007E1,-2.033874273E0,3.771466255E0,1.445353487E1
3.131508968E0,1.354998493E1,-1.938106298E0,3.541622877E0,1.413865058E1
3.134022510E0,1.330577564E1,-1.866280198E0,3.326144695E0,1.384160055E1
3.136536156E0,1.310466290E1,-1.789665818E0,3.144185305E0,1.359488855E1
3.139049854E0,1.294185734E1,-1.722628117E0,2.976591349E0,1.339101247E1
3.141563604E0,1.282214737E1,-1.684320927E0,2.866457939E0,1.324616855E1
3.144077406E0,1.273595619E1,-1.646013618E0,2.804208755E0,1.314448659E1
3.146591208E0,1.272637939E1,-1.602918029E0,2.808997154E0,1.313090034E1
3.149105010E0,1.271680260E1,-1.569399238E0,2.828150749E0,1.312168125E1
3.151618447E0,1.272637939E1,-1.511938334E0,2.837727547E0,1.312628613E1
3.154131833E0,1.274074459E1,-1.464054346E0,2.890399933E0,1.314627094E1
3.156645218E0,1.278384018E1,-1.420958757E0,2.962226152E0,1.319926048E1
3.159158604E0,1.282214737E1,-1.387439847E0,3.038840532E0,1.325016997E1
3.161671989E0,1.283172417E1,-1.353921056E0,3.125031710E0,1.327599603E1
3.164185375E0,1.285087776E1,-1.358709455E0,3.187281132E0,1.330976753E1
3.166698760E0,1.287960815E1,-1.339555860E0,3.287837505E0,1.335996226E1
3.169212145E0,1.290833855E1,-1.301248670E0,3.397970676E0,1.341136298E1
3.171725270E0,1.291312695E1,-1.296460271E0,3.508104086E0,1.344382576E1
3.174238395E0,1.284608936E1,-1.262941360E0,3.589506865E0,1.339782043E1
3.176751520E0,1.279341698E1,-1.258152962E0,3.646967649E0,1.336244139E1
3.179264645E0,1.274553299E1,-1.277306557E0,3.728370667E0,1.334094716E1
3.181777770E0,1.264976501E1,-1.262941360E0,3.761889458E0,1.325757852E1
3.184290895E0,1.252047825E1,-1.248576164E0,3.785831451E0,1.313978074E1
3.186804020E0,1.238640213E1,-1.238999367E0,3.838503838E0,1.302659544E1
3.189317145E0,1.222359657E1,-1.234210968E0,3.886387825E0,1.288579063E1
3.191830270E0,1.204642582E1,-1.224634171E0,3.958214045E0,1.273905657E1
3.194343395E0,1.185488987E1,-1.219845772E0,3.996521235E0,1.256975018E1
3.196856520E0,1.168250751E1,-1.219845772E0,4.039616585E0,1.242125226E1
3.199369645E0,1.149575901E1,-1.205480576E0,4.097077847E0,1.226342960E1
3.201882770E0,1.128028107E1,-1.195903778E0,4.144961834E0,1.207707065E1
3.204395895E0,1.109353352E1,-1.200692177E0,4.183269024E0,1.191670623E1
3.206909020E0,1.089720917E1,-1.210268974E0,4.231153011E0,1.175230081E1
3.209422145E0,1.070088482E1,-1.176750183E0,4.274248600E0,1.158287002E1
3.211935270E0,1.049498272E1,-1.181538582E0,4.312555790E0,1.140784086E1
3.214448447E0,1.028908157E1,-1.162384868E0,4.322132587E0,1.122039074E1
3.216961677E0,1.009754562E1,-1.152808070E0,4.317344189E0,1.104213996E1
3.219474906E0,9.872490883E0,-1.133654475E0,4.307767391E0,1.083088679E1
3.221988135E0,9.704896927E0,-1.124077678E0,4.312555790E0,1.067926554E1
3.224501364E0,9.542090416E0,-1.104924083E0,4.336497784E0,1.053933393E1
3.227014593E0,9.408015251E0,-1.114500880E0,4.336497784E0,1.041912070E1
3.229527822E0,9.302670479E0,-1.109712481E0,4.350862980E0,1.032962480E1
3.232041052E0,9.226056099E0,-1.124077678E0,4.370016575E0,1.027038006E1
3.234554281E0,9.154230118E0,-1.128866076E0,4.398746967E0,1.021876913E1
3.237067510E0,9.115922928E0,-1.133654475E0,4.408323765E0,1.018913842E1
3.239580739E0,9.082404137E0,-1.143231273E0,4.422688961E0,1.016647531E1
3.242093968E0,9.029731750E0,-1.138442874E0,4.408323765E0,1.011263695E1
3.244607197E0,8.981847763E0,-1.162384868E0,4.374804974E0,1.005801404E1
3.247120427E0,8.933963776E0,-1.167173386E0,4.365228176E0,1.001165418E1
3.249633708E0,8.895656586E0,-1.167173386E0,4.336497784E0,9.964949214E0
3.252147041E0,8.876502991E0,-1.171961784E0,4.355651379E0,9.956781543E0
3.254660375E0,8.866926193E0,-1.171961784E0,4.379593372E0,9.958750557E0
3.257173708E0,8.871714592E0,-1.181538582E0,4.374804974E0,9.962041547E0
3.259686781E0,8.866926193E0,-1.171961784E0,4.341286182E0,9.941963602E0
3.262199802E0,8.862137794E0,-1.128866076E0,4.331709385E0,9.928521093E0
3.264712822E0,8.814253807E0,-1.071405292E0,4.317344189E0,9.873117052E0
3.267225322E0,8.771158218E0,-1.018732786E0,4.283825397E0,9.814387042E0
3.269737822E0,8.718485832E0,-9.660604000E-1,4.240729809E0,9.743154377E0
3.272250322E0,8.684967041E0,-9.038111567E-1,4.197634220E0,9.688429189E0
3.274762822E0,8.608352661E0,-8.367735147E-1,4.149750233E0,9.592932422E0
3.277275322E0,8.522160530E0,-7.841010690E-1,4.082712650E0,9.482118812E0
3.279787822E0,8.445546150E0,-7.410054207E-1,4.025251389E0,9.385040626E0
3.282300375E0,8.373720169E0,-6.979097724E-1,3.958214045E0,9.288365084E0
3.284812979E0,8.297105789E0,-6.596025825E-1,3.910329819E0,9.196070864E0
3.287325687E0,8.215703011E0,-6.117185354E-1,3.900753021E0,9.115253680E0
3.289838500E0,8.100781441E0,-5.734112859E-1,3.867234230E0,8.994829684E0
3.292351416E0,7.995436668E0,-5.494692922E-1,3.785831451E0,8.863489369E0
3.294864437E0,7.856573105E0,-5.015852451E-1,3.723582268E0,8.708753850E0
3.297377562E0,7.746439457E0,-4.584896266E-1,3.694851875E0,8.594734864E0
3.299890791E0,7.621941090E0,-4.297592044E-1,3.675698042E0,8.472864630E0
3.302404125E0,7.502231121E0,-3.962403834E-1,3.627814054E0,8.342752127E0
3.304917510E0,7.396886349E0,-3.770867586E-1,3.584718466E0,8.228385538E0
3.307430947E0,7.272387505E0,-3.675099611E-1,3.546411276E0,8.099365193E0
3.309944437E0,7.152677536E0,-3.675099611E-1,3.522469282E0,7.981456593E0
3.312457927E0,7.056909561E0,-3.627215624E-1,3.474585295E0,7.874279806E0
3.314971416E0,6.951564789E0,-3.675099611E-1,3.441066504E0,7.765323900E0
3.317484906E0,6.889315605E0,-3.866635859E-1,3.417124271E0,7.699929644E0
3.319997458E0,6.841431141E0,-3.770867586E-1,3.397970676E0,7.648109518E0
3.322510010E0,6.803123951E0,-3.722983599E-1,3.426701069E0,7.626492102E0
3.325022562E0,6.831854343E0,-3.627215624E-1,3.441066504E0,7.658115916E0
3.327535114E0,6.855796337E0,-3.483563364E-1,3.488950491E0,7.700394216E0
3.330047718E0,6.889315605E0,-3.244143426E-1,3.522469282E0,7.744398235E0
3.332560375E0,6.951564789E0,-2.956839204E-1,3.532046080E0,7.803014257E0
3.335073135E0,7.032967567E0,-2.430114746E-1,3.613448858E0,7.910670012E0
3.337586000E0,7.133523941E0,-2.094926536E-1,3.680486679E0,8.029759223E0
3.340099020E0,7.234080315E0,-1.807622313E-1,3.752312660E0,8.151346103E0
3.342612197E0,7.334636688E0,-1.280897856E-1,3.781043053E0,8.252853380E0
3.345125479E0,7.435193539E0,-8.020575345E-2,3.804985046E0,8.352631150E0
3.347638864E0,7.550115108E0,-5.626374111E-2,3.843292236E0,8.472207444E0
3.350152354E0,7.684190273E0,-1.316810958E-2,3.876811028E0,8.606777405E0
3.352665947E0,7.827842236E0,3.471592441E-2,3.924695253E0,8.756686136E0
3.355179645E0,7.981071472E0,9.217676520E-2,3.943848848E0,8.902805296E0
3.357693447E0,8.105569839E0,1.256955862E-1,4.001309395E0,9.040273153E0
3.360207302E0,8.258798599E0,1.544260085E-1,4.044404984E0,9.197217697E0
3.362721156E0,8.416815758E0,1.783680320E-1,4.077924252E0,9.354360954E0
3.365235010E0,8.550890923E0,1.975216419E-1,4.121019840E0,9.494185320E0
3.367747979E0,8.694543839E0,2.118868530E-1,4.135385036E0,9.630233538E0
3.370260947E0,8.799888611E0,2.501940727E-1,4.154538631E0,9.734517342E0
3.372773916E0,8.886079788E0,2.597708702E-1,4.144961834E0,9.808700399E0
3.375286885E0,8.948328972E0,2.310404629E-1,4.135385036E0,9.860394540E0
3.377799906E0,9.005789757E0,2.358288616E-1,4.125808239E0,9.908691035E0
3.380312979E0,9.034520149E0,2.118868530E-1,4.092289448E0,9.920397335E0
3.382826104E0,9.048885345E0,1.975216419E-1,4.068347454E0,9.923345797E0
3.385339281E0,9.024943352E0,1.783680320E-1,4.063559055E0,9.899188343E0
3.387852458E0,8.996212959E0,1.448491961E-1,4.044404984E0,9.864585170E0
3.390365635E0,8.957905769E0,1.256955862E-1,3.996521235E0,9.809793939E0
3.392878812E0,8.890868187E0,1.017535701E-1,3.948637247E0,9.728803987E0
3.395391989E0,8.785523415E0,6.344634295E-2,3.915118217E0,9.618606852E0
3.397905166E0,8.689755440E0,5.865794048E-2,3.862445831E0,9.509667615E0
3.400418343E0,8.584410667E0,4.429273307E-2,3.804985046E0,9.389993587E0
3.402931520E0,8.455122948E0,3.950432688E-2,3.752312660E0,9.250433231E0
3.405444750E0,8.297105789E0,3.950432688E-2,3.694851875E0,9.082700890E0
3.407958031E0,8.153453827E0,5.985504016E-3,3.646967649E0,8.931921303E0
3.410471364E0,8.019378662E0,1.556231081E-2,3.575141668E0,8.780222905E0
3.412984697E0,7.880515099E0,-1.795651205E-2,3.541622877E0,8.639787802E0
3.415497614E0,7.765593052E0,-4.189852998E-2,3.479373693E0,8.509537721E0
3.418010270E0,7.669825077E0,-5.147533491E-2,3.431489468E0,8.402617830E0
3.420522718E0,7.588422298E0,-7.062894851E-2,3.378817081E0,8.306957704E0
3.423035166E0,7.487865925E0,-1.089361757E-1,3.311779499E0,8.188277392E0
3.425547614E0,7.435193539E0,-1.137245819E-1,3.278260708E0,8.126624730E0
3.428060114E0,7.406463146E0,-1.041477770E-1,3.239953518E0,8.084790776E0
3.430572666E0,7.382521152E0,-1.089361757E-1,3.201646328E0,8.047609885E0
3.433085322E0,7.392097950E0,-8.020575345E-2,3.168127298E0,8.042796506E0
3.435598135E0,7.406463146E0,-2.753331885E-2,3.144185305E0,8.046263459E0
3.438111104E0,7.416039944E0,2.992752194E-2,3.077147722E0,8.029158250E0
3.440624229E0,7.459135532E0,8.738835901E-2,2.990956545E0,8.036924827E0
3.443137510E0,7.516596317E0,1.400607973E-1,2.904765129E0,8.059559397E0
3.445650895E0,7.554903507E0,1.975216419E-1,2.775478363E0,8.051016206E0
3.448164385E0,7.597999096E0,2.693476975E-1,2.655768156E0,8.053275293E0
3.450677979E0,7.631517887E0,3.076549172E-1,2.536058187E0,8.047751732E0
3.453191625E0,7.650671482E0,3.794809580E-1,2.445078373E0,8.040844991E0
3.455705322E0,7.693767071E0,4.129997790E-1,2.368463993E0,8.060660162E0
3.458219020E0,7.712920666E0,4.321534038E-1,2.306214809E0,8.061918414E0
3.460732718E0,7.741651058E0,4.321534038E-1,2.239177227E0,8.070553409E0
3.463246416E0,7.770381451E0,4.560954273E-1,2.196081400E0,8.087621680E0
3.465760062E0,7.784746647E0,4.752490520E-1,2.167351007E0,8.094785507E0
3.468273343E0,7.808688641E0,4.944026470E-1,2.152985811E0,8.115134020E0
3.470786625E0,7.837419033E0,5.183446407E-1,2.162562609E0,8.146808903E0
3.473299697E0,7.832630634E0,5.422866940E-1,2.157774210E0,8.142491452E0
3.475812666E0,7.808688641E0,5.566518903E-1,2.162562609E0,8.121708973E0
3.478325635E0,7.779958248E0,5.758054852E-1,2.167351007E0,8.096709992E0
3.480838604E0,7.770381451E0,5.949591398E-1,2.186504602E0,8.094047606E0
3.483351572E0,7.779958248E0,6.141127348E-1,2.234388828E0,8.117720014E0
3.485864541E0,7.770381451E0,6.236895323E-1,2.301426411E0,8.127999757E0
3.488377510E0,7.775169849E0,6.332663298E-1,2.363675594E0,8.151150517E0
3.490890479E0,7.832630634E0,6.236895323E-1,2.483385801E0,8.240527673E0
3.493403447E0,7.918822289E0,5.901707411E-1,2.583942175E0,8.350617049E0
3.495916468E0,8.024167061E0,5.374982953E-1,2.679710150E0,8.476851298E0
3.498429541E0,8.134300232E0,4.656722248E-1,2.813785553E0,8.619807424E0
3.500942666E0,8.225279808E0,3.890577853E-1,2.943072557E0,8.744613768E0
3.503455843E0,8.297105789E0,3.028665185E-1,3.086724520E0,8.857853062E0
3.505969072E0,8.397662163E0,2.023100406E-1,3.196857929E0,8.987856239E0
3.508482354E0,8.464699745E0,1.256955862E-1,3.306991100E0,9.088626480E0
3.510995635E0,8.560467720E0,3.950432688E-2,3.421912670E0,9.219146083E0
3.513508916E0,8.656236649E0,-2.274491638E-2,3.546411276E0,9.354570176E0
3.516022197E0,8.761581421E0,-9.457096457E-2,3.714005470E0,9.516726816E0
3.518534906E0,8.886079788E0,-1.089361757E-1,3.881599426E0,9.697478806E0
3.521047562E0,9.020154953E0,-1.616086215E-1,4.073135853E0,9.898472023E0
3.523560218E0,9.178172112E0,-1.903390288E-1,4.245518208E0,1.011432139E1
3.526072875E0,9.326612473E0,-1.951274425E-1,4.374804974E0,1.030352821E1
3.528585427E0,9.470264435E0,-2.238578647E-1,4.513668537E0,1.049329426E1
3.531097927E0,9.633070946E0,-2.477998734E-1,4.633378983E0,1.069231787E1
3.533610427E0,9.800664902E0,-2.908954918E-1,4.753088951E0,1.089630705E1
3.536122979E0,9.920374870E0,-3.100491166E-1,4.858433723E0,1.105053602E1
3.538635583E0,1.005923843E1,-3.483563364E-1,4.949413300E0,1.121634174E1
3.541148291E0,1.017894840E1,-3.675099611E-1,5.045181751E0,1.136661397E1
3.543661104E0,1.034175396E1,-4.058171809E-1,5.150526524E0,1.156047084E1
3.546174072E0,1.050934792E1,-4.537012279E-1,5.227140903E0,1.174628624E1
3.548687197E0,1.066736603E1,-4.776432514E-1,5.313332081E0,1.192695849E1
3.551200479E0,1.078707600E1,-5.063736439E-1,5.375581264E0,1.206293069E1
3.553713916E0,1.092593956E1,-5.303156972E-1,5.394734859E0,1.219674359E1
3.556227510E0,1.099776554E1,-5.590460896E-1,5.437830448E0,1.228142416E1
3.558741260E0,1.108395672E1,-5.925649405E-1,5.480926037E0,1.237924796E1
3.561255166E0,1.117493629E1,-6.404489279E-1,5.495291233E0,1.246946678E1
3.563769177E0,1.126112747E1,-6.787561774E-1,5.485714436E0,1.254459106E1
3.566283239E0,1.132816505E1,-7.218518257E-1,5.490502834E0,1.260928289E1
3.568797354E0,1.140477943E1,-7.984662652E-1,5.514444828E0,1.269313374E1
3.571311468E0,1.151012421E1,-8.607155085E-1,5.552752495E0,1.280846793E1
3.573825583E0,1.162025833E1,-9.038111567E-1,5.581482887E0,1.292285686E1
3.576339697E0,1.174475670E1,-9.756371975E-1,5.682039261E0,1.308345321E1
3.578853447E0,1.185488987E1,-1.047463298E0,5.801749229E0,1.323993532E1
3.581367145E0,1.197459984E1,-1.133654475E0,5.921459198E0,1.340671074E1
3.583880739E0,1.207036781E1,-1.215057373E0,6.065111637E0,1.356302779E1
3.586394333E0,1.213740540E1,-1.248576164E0,6.213551998E0,1.369247168E1
3.588907875E0,1.218050098E1,-1.267729759E0,6.323685169E0,1.378262446E1
3.591421364E0,1.218050098E1,-1.282094955E0,6.491279125E0,1.386164047E1
3.593934854E0,1.219486618E1,-1.262941360E0,6.668450356E0,1.395628934E1
3.596448343E0,1.219965458E1,-1.253364563E0,6.855197906E0,1.404977697E1
3.598961833E0,1.220923138E1,-1.248576164E0,7.027580738E0,1.414253034E1
3.601475322E0,1.222838497E1,-1.253364563E0,7.180809498E0,1.423616335E1
3.603988812E0,1.221880817E1,-1.224634171E0,7.310096264E0,1.429113395E1
3.606502302E0,1.222359657E1,-1.186326981E0,7.453748226E0,1.436600318E1
3.609015791E0,1.222838497E1,-1.138442874E0,7.602189064E0,1.444377824E1
3.611529281E0,1.222359657E1,-1.071405292E0,7.697957039E0,1.448526027E1
3.614042302E0,1.219965458E1,-1.061828494E0,7.788936615E0,1.451297989E1
3.616555322E0,1.218050098E1,-1.052251697E0,7.841609001E0,1.452455402E1
3.619068135E0,1.218050098E1,-1.018732786E0,7.903858185E0,1.455587149E1
3.621580947E0,1.216134739E1,-9.660604000E-1,7.966107368E0,1.457019250E1
3.624093760E0,1.218528938E1,-9.229647517E-1,8.023568153E0,1.461885041E1
3.626606625E0,1.222838497E1,-8.607155085E-1,8.066663742E0,1.467464801E1
3.629119541E0,1.229542255E1,-7.984662652E-1,8.100182533E0,1.474543730E1
3.631632510E0,1.235288334E1,-7.362170219E-1,8.128912926E0,1.480590989E1
3.634145531E0,1.243907452E1,-6.739677787E-1,8.124124527E0,1.487233024E1
3.636658604E0,1.253963184E1,-6.260837317E-1,8.133701324E0,1.495966059E1
3.639171677E0,1.264976501E1,-5.781996846E-1,8.119336128E0,1.504242298E1
3.641684750E0,1.270722580E1,-5.398924947E-1,8.138489723E0,1.509967173E1
3.644197822E0,1.275510979E1,-4.872200489E-1,8.167220116E0,1.515366931E1
3.646710895E0,1.277426338E1,-4.441244006E-1,8.210315704E0,1.519171930E1
3.649223968E0,1.279820538E1,-3.866635859E-1,8.258200645E0,1.523618874E1
3.651737041E0,1.284130096E1,-3.627215624E-1,8.296507835E0,1.529256746E1
3.654250114E0,1.285087776E1,-3.387795389E-1,8.353968620E0,1.533129553E1
3.656763239E0,1.285566616E1,-3.292027414E-1,8.397064209E0,1.535862019E1
3.659276416E0,1.280299377E1,-3.627215624E-1,8.425794601E0,1.533108708E1
3.661789645E0,1.272637939E1,-3.866635859E-1,8.444948196E0,1.527833077E1
3.664302927E0,1.263539982E1,-4.249708056E-1,8.459313393E0,1.521163738E1
3.666816260E0,1.251090145E1,-4.776432514E-1,8.464101791E0,1.511263767E1
3.669329593E0,1.240076733E1,-5.015852451E-1,8.449736595E0,1.501428209E1
3.671842927E0,1.227626896E1,-5.542576909E-1,8.416217804E0,1.489451924E1
3.674356260E0,1.213740540E1,-5.925649405E-1,8.411429405E0,1.477903541E1
3.676869593E0,1.196023464E1,-6.308721304E-1,8.353968620E0,1.460253417E1
3.679382822E0,1.181179428E1,-6.787561774E-1,8.325238228E0,1.446681671E1
3.681895635E0,1.162504673E1,-7.266402245E-1,8.248623848E0,1.427268415E1
3.684408447E0,1.142393303E1,-7.697358727E-1,8.195950508E0,1.408092127E1
3.686921260E0,1.121324348E1,-7.984662652E-1,8.152854919E0,1.388680745E1
3.689434072E0,1.105043793E1,-8.271966577E-1,8.104970932E0,1.372905629E1
3.691946937E0,1.090199757E1,-8.511387110E-1,8.052298546E0,1.358004050E1
3.694459854E0,1.076313400E1,-8.655039072E-1,7.961318970E0,1.341554137E1
3.696972822E0,1.064342403E1,-8.942343593E-1,7.860762596E0,1.326173891E1
3.699485895E0,1.054286766E1,-9.133879542E-1,7.764994621E0,1.312560389E1
3.701999072E0,1.043273354E1,-9.229647517E-1,7.693168640E0,1.299533134E1
3.704512354E0,1.031302357E1,-9.133879542E-1,7.616554260E0,1.285319538E1
3.707025739E0,1.021246719E1,-9.085995555E-1,7.530363083E0,1.272110088E1
3.709539229E0,1.009754562E1,-8.894459605E-1,7.429806232E0,1.256795777E1
3.712052770E0,1.004487324E1,-8.894459605E-1,7.334038258E0,1.246911022E1
3.714566364E0,9.996989250E0,-8.942343593E-1,7.252635479E0,1.238305982E1
3.717080010E0,9.594763756E0,-8.176198602E-1,7.161655903E0,1.200072119E1
3.719593708E0,9.628282547E0,-8.655039072E-1,7.118560314E0,1.200528312E1
3.722107458E0,9.719262123E0,-9.564836025E-1,7.051522732E0,1.204586609E1
3.724621208E0,9.858125687E0,-1.080982089E0,6.970119476E0,1.212162241E1
3.727134958E0,9.968258858E0,-1.186326981E0,6.893505096E0,1.217760111E1
3.729648708E0,1.006402683E1,-1.286883354E0,6.850409508E0,1.224209195E1
3.732162302E0,1.020767879E1,-1.382651448E0,6.840832710E0,1.236549326E1
3.734675895E0,1.025077438E1,-1.454477549E0,6.792948723E0,1.238297350E1
3.737189125E0,1.005445004E1,-1.401805043E0,6.792948723E0,1.221479329E1
3.739702354E0,9.805453300E0,-1.296460271E0,6.788160324E0,1.199611788E1
3.742215583E0,9.657012939E0,-1.186326981E0,6.807313919E0,1.187454392E1
3.744728864E0,9.604340553E0,-1.119289279E0,6.807313919E0,1.182521411E1
3.747242197E0,9.623494148E0,-1.109712481E0,6.797737122E0,1.183437076E1
3.749755583E0,9.623494148E0,-1.095347285E0,6.788160324E0,1.182753338E1
3.752269020E0,9.594763756E0,-1.104924083E0,6.788160324E0,1.180506117E1
3.754782510E0,9.551667213E0,-1.109712481E0,6.792948723E0,1.177327315E1
3.757296052E0,9.508571625E0,-1.128866076E0,6.845621109E0,1.177071796E1
3.759809645E0,9.508571625E0,-1.148019671E0,6.922235489E0,1.181728512E1
3.762323291E0,9.522936821E0,-1.162384868E0,6.955754280E0,1.184989375E1
3.764836937E0,9.556455612E0,-1.157596469E0,7.027580738E0,1.191858903E1
3.767350583E0,9.566033363E0,-1.152808070E0,7.046734333E0,1.193710289E1
3.769864229E0,9.556455612E0,-1.119289279E0,7.065887928E0,1.193756359E1
3.772377875E0,9.518148422E0,-1.090558887E0,7.061099529E0,1.190141146E1
3.774891520E0,9.475052834E0,-1.033097982E0,7.032369137E0,1.184475130E1
3.777405166E0,9.427168846E0,-1.004367590E0,7.008427143E0,1.178975478E1
3.779918812E0,9.412803650E0,-9.900023937E-1,6.955754280E0,1.174578626E1
3.782432458E0,9.374496460E0,-9.947907925E-1,6.903081894E0,1.168431993E1
3.784945739E0,9.355342865E0,-9.947907925E-1,6.864774704E0,1.164633765E1
3.787458968E0,9.350554466E0,-1.018732786E0,6.802525520E0,1.160797307E1
3.789972197E0,9.321824074E0,-1.009155989E0,6.749853134E0,1.155315183E1
3.792485427E0,9.340977669E0,-9.804255962E-1,6.706757545E0,1.154104393E1
3.794998656E0,9.297882080E0,-9.660604000E-1,6.682815552E0,1.149103597E1
3.797511885E0,9.269151688E0,-9.469067454E-1,6.630143166E0,1.143558498E1
3.800025114E0,9.249998093E0,-9.229647517E-1,6.582259178E0,1.139036718E1
3.802538343E0,9.240421295E0,-8.846575022E-1,6.534375191E0,1.135191895E1
3.805051572E0,9.206902504E0,-8.463503122E-1,6.476913929E0,1.128865699E1
3.807564854E0,9.173383713E0,-8.176198602E-1,6.429029942E0,1.123173615E1
3.810078187E0,9.149441719E0,-8.080430627E-1,6.385934353E0,1.118683936E1
3.812591520E0,9.120711327E0,-8.128314614E-1,6.338050365E0,1.113637969E1
3.815104906E0,9.120711327E0,-8.176198602E-1,6.299743176E0,1.111497375E1
3.817618291E0,9.077615738E0,-8.128314614E-1,6.275801182E0,1.106568945E1
3.820131677E0,9.034520149E0,-8.271966577E-1,6.256647587E0,1.102054661E1
3.822645062E0,8.972270966E0,-8.367735147E-1,6.247070789E0,1.096484061E1
3.825158447E0,8.905233383E0,-8.415619135E-1,6.251859188E0,1.091316413E1
3.827671833E0,8.833407402E0,-8.607155085E-1,6.266224384E0,1.086441372E1
3.830184593E0,8.752004623E0,-8.702923059E-1,6.280589581E0,1.080744184E1
3.832697197E0,8.656236649E0,-8.750807047E-1,6.285377979E0,1.073322764E1
3.835209802E0,8.560467720E0,-8.798691034E-1,6.251859188E0,1.063680030E1
3.837722406E0,8.445546150E0,-8.798691034E-1,6.232705593E0,1.053318748E1
3.840235010E0,8.311470985E0,-8.655039072E-1,6.184821606E0,1.039623322E1
3.842747614E0,8.172607422E0,-8.655039072E-1,6.132149220E0,1.025396817E1
3.845260270E0,8.024167061E0,-8.415619135E-1,6.079476833E0,1.010225332E1
3.847773031E0,7.899668694E0,-8.080430627E-1,6.045958042E0,9.980546463E0
3.850285895E0,7.746439457E0,-7.936778665E-1,6.031592846E0,9.849739137E0
3.852798916E0,7.593210697E0,-7.745242715E-1,6.002861977E0,9.710359852E0
3.855312093E0,7.507019520E0,-7.362170219E-1,5.964554787E0,9.616302376E0
3.857825427E0,7.406463146E0,-7.026981711E-1,5.921459198E0,9.508583495E0
3.860338916E0,7.296329498E0,-6.643909812E-1,5.892728806E0,9.402238686E0
3.862852562E0,7.234080315E0,-6.165069342E-1,5.825691223E0,9.308634541E0
3.865366364E0,7.167042732E0,-5.925649405E-1,5.777807236E0,9.225003587E0
3.867880270E0,7.128735542E0,-5.877765417E-1,5.715558052E0,9.155979224E0
3.870394281E0,7.100005150E0,-5.686228871E-1,5.643732071E0,9.087635380E0
3.872908343E0,7.066486359E0,-5.494692922E-1,5.619790077E0,9.045395871E0
3.875422406E0,7.052121162E0,-5.207388401E-1,5.629366875E0,9.038437544E0
3.877936468E0,7.023390770E0,-4.776432514E-1,5.624578476E0,9.010662796E0
3.880450218E0,7.018602371E0,-4.489128292E-1,5.619790077E0,9.002463134E0
3.882963395E0,7.042544365E0,-4.345476031E-1,5.643732071E0,9.035373509E0
3.885476572E0,7.080851555E0,-4.441244006E-1,5.696404457E0,9.098611376E0
3.887989750E0,7.095216751E0,-4.441244006E-1,5.739500046E0,9.136805131E0
3.890502822E0,7.119158745E0,-4.632780254E-1,5.792172432E0,9.189467299E0
3.893015895E0,7.123947144E0,-4.776432514E-1,5.835268021E0,9.221123514E0
3.895528968E0,7.104793549E0,-4.584896266E-1,5.887940407E0,9.238839015E0
3.898042041E0,7.076063156E0,-4.632780254E-1,5.940612793E0,9.250739250E0
3.900555114E0,7.018602371E0,-4.776432514E-1,5.959766388E0,9.219964085E0
3.903068187E0,6.941987991E0,-4.632780254E-1,6.002861977E0,9.189133567E0
3.905581260E0,6.846219540E0,-4.872200489E-1,6.031592846E0,9.137188715E0
3.908094333E0,6.731297970E0,-4.872200489E-1,6.036381245E0,9.054592993E0
3.910607406E0,6.611588001E0,-5.015852451E-1,6.055534840E0,8.979653994E0
3.913120479E0,6.453570843E0,-5.015852451E-1,6.103418827E0,8.896734556E0
3.915633552E0,6.271611214E0,-5.111620426E-1,6.103418827E0,8.766191603E0
3.918146625E0,6.094440460E0,-5.015852451E-1,6.108207226E0,8.643146869E0
3.920659697E0,5.888539314E0,-5.207388401E-1,6.112995625E0,8.503809717E0
3.923172770E0,5.677849293E0,-5.159504414E-1,6.127360821E0,8.369511818E0
3.925685843E0,5.457582951E0,-5.111620426E-1,6.132149220E0,8.224946951E0
3.928198916E0,5.208585739E0,-4.872200489E-1,6.103418827E0,8.038561448E0
3.930711989E0,4.993107796E0,-4.632780254E-1,6.060323238E0,7.865956378E0
3.933225114E0,4.782417774E0,-4.345476031E-1,6.022016048E0,7.702274253E0
3.935738291E0,4.581305027E0,-3.818751574E-1,6.002861977E0,7.560987786E0
3.938251468E0,4.413711071E0,-3.435679376E-1,5.964554787E0,7.427974027E0
3.940764645E0,4.279635429E0,-2.861070931E-1,5.897517204E0,7.292314163E0
3.943277822E0,4.188655853E0,-2.382230759E-1,5.863998413E0,7.210274993E0
3.945791000E0,4.140771866E0,-1.520318091E-1,5.801749229E0,7.129473994E0
3.948303552E0,4.107253075E0,-8.499415964E-2,5.739500046E0,7.058230132E0
3.950815739E0,4.102464676E0,-8.379706182E-3,5.634155273E0,6.969504450E0
3.953327927E0,4.092887878E0,7.781155407E-2,5.500079632E0,6.856286296E0
3.955840166E0,4.112041473E0,1.544260085E-1,5.366004467E0,6.762154717E0
3.958352458E0,4.150348663E0,2.118868530E-1,5.246294498E0,6.692824219E0
3.960864802E0,4.217386246E0,2.549824715E-1,5.136161327E0,6.650677859E0
3.963377250E0,4.308365822E0,2.932897210E-1,5.064335346E0,6.655488518E0
3.965889802E0,4.408922195E0,2.932897210E-1,4.987720490E0,6.663480282E0
3.968402458E0,4.514267445E0,2.980781198E-1,4.935048103E0,6.694935467E0
3.970915270E0,4.614823818E0,2.932897210E-1,4.915894508E0,6.748973000E0
3.973428239E0,4.724956989E0,2.597708702E-1,4.906317711E0,6.816498583E0
3.975941364E0,4.811148167E0,2.741360962E-1,4.911106110E0,6.880498565E0
3.978454645E0,4.854243755E0,2.597708702E-1,4.944624901E0,6.934008851E0
3.980968083E0,4.892550945E0,2.645592988E-1,4.978143692E0,6.984909519E0
3.983481677E0,4.906916618E0,2.837128937E-1,5.054758549E0,7.050454432E0
3.985995375E0,4.906916618E0,2.885012925E-1,5.126584530E0,7.102318821E0
3.988509177E0,4.882974148E0,2.885012925E-1,5.231929302E0,7.162384641E0
3.991023031E0,4.849455357E0,2.932897210E-1,5.318120480E0,7.203168855E0
3.993536937E0,4.830301762E0,2.932897210E-1,5.433042049E0,7.275697896E0
3.996050843E0,4.820724964E0,3.076549172E-1,5.552752495E0,7.359830229E0
3.998564697E0,4.801571369E0,3.124433160E-1,5.662885666E0,7.431082189E0
4.001077666E0,4.748898983E0,3.172317147E-1,5.744288445E0,7.459861074E0
4.003590114E0,4.667496204E0,3.268085420E-1,5.849633217E0,7.490696457E0
4.006102562E0,4.571728230E0,3.220201433E-1,5.873575211E0,7.450052465E0
4.008615010E0,4.452018261E0,3.459621370E-1,5.887940407E0,7.389722500E0
4.011127458E0,4.351461411E0,3.746925592E-1,5.935824394E0,7.369506236E0
4.013639906E0,4.255693436E0,3.794809580E-1,5.969343185E0,7.340843990E0
4.016152354E0,4.150348663E0,4.034229815E-1,5.983708382E0,7.293346977E0
4.018664802E0,4.064157486E0,4.225766063E-1,6.002861977E0,7.261563122E0
4.021177250E0,3.997119665E0,4.177882075E-1,6.002861977E0,7.223978441E0
4.023689697E0,3.920505285E0,4.321534038E-1,6.017227650E0,7.194730491E0
4.026202145E0,3.896563292E0,4.513070285E-1,6.022016048E0,7.186902031E0
4.028714593E0,3.882198095E0,4.560954273E-1,6.045958042E0,7.199520382E0
4.031227093E0,3.877409697E0,4.560954273E-1,6.055534840E0,7.204986550E0
4.033739645E0,3.882198095E0,4.465186298E-1,6.108207226E0,7.251278263E0
4.036252250E0,3.906140089E0,4.656722248E-1,6.141726017E0,7.293529974E0
4.038764906E0,3.944447279E0,4.656722248E-1,6.194398403E0,7.358402444E0
4.041277666E0,3.982754469E0,4.944026470E-1,6.218340397E0,7.400981315E0
4.043790531E0,4.001908302E0,5.279214978E-1,6.189610004E0,7.389536060E0
4.046303500E0,3.992331266E0,5.949591398E-1,6.160879612E0,7.365400390E0
4.048816572E0,3.973177671E0,6.332663298E-1,6.117784023E0,7.322188772E0
4.051329750E0,3.944447279E0,6.811503768E-1,6.069900036E0,7.270922680E0
4.053843031E0,3.906140089E0,7.433996201E-1,6.026804447E0,7.220314760E0
4.056356416E0,3.877409697E0,7.864952683E-1,5.983708382E0,7.173398550E0
4.058869854E0,3.843890905E0,8.200140595E-1,5.964554787E0,7.143096958E0
4.061383291E0,3.839102507E0,8.583213091E-1,5.926247597E0,7.113074870E0
4.063896729E0,3.853467703E0,8.822633028E-1,5.907094002E0,7.107838027E0
4.066410114E0,3.824737310E0,8.870517015E-1,5.878363609E0,7.068991083E0
4.068923031E0,3.805583715E0,9.205705523E-1,5.883152008E0,7.066922605E0
4.071435895E0,3.805583715E0,9.684545994E-1,5.897517204E0,7.085272112E0
4.073948760E0,3.786429882E0,1.006761789E0,5.873575211E0,7.060418281E0
4.076461625E0,3.786429882E0,1.025915384E0,5.849633217E0,7.043277816E0
4.078974489E0,3.805583715E0,1.049857497E0,5.854421616E0,7.061084947E0
4.081487354E0,3.810372114E0,1.073799491E0,5.878363609E0,7.087110816E0
4.084000218E0,3.829525709E0,1.092953086E0,5.897517204E0,7.116215482E0
4.086513083E0,3.872621298E0,1.088164687E0,5.954977989E0,7.186310664E0
4.089025947E0,3.930082083E0,1.073799491E0,5.998073578E0,7.250894922E0
4.091538864E0,3.982754469E0,1.078587890E0,6.074688435E0,7.343536244E0
4.094051833E0,4.035427094E0,1.083376288E0,6.189610004E0,7.467907874E0
4.096564906E0,4.097676277E0,1.088164687E0,6.314108372E0,7.605459736E0
4.099078135E0,4.150348663E0,1.097741485E0,6.467337132E0,7.762530513E0
4.101591520E0,4.203021049E0,1.088164687E0,6.644508362E0,7.937189660E0
4.104105062E0,4.265270233E0,1.092953086E0,6.816890717E0,8.115237252E0
4.106618708E0,4.289212227E0,1.097741485E0,6.955754280E0,8.245295355E0
4.109132458E0,4.298789024E0,1.088164687E0,7.108983517E0,8.378623759E0
4.111646260E0,4.317942619E0,1.097741485E0,7.286154270E0,8.540357655E0
4.114160062E0,4.332307816E0,1.107318282E0,7.448959827E0,8.688040475E0
4.116672770E0,4.351461411E0,1.126471877E0,7.587823868E0,8.819253163E0
4.119185322E0,4.375403404E0,1.136048675E0,7.721899033E0,8.947764314E0
4.121697875E0,4.404133797E0,1.140837073E0,7.851185799E0,9.074085198E0
4.124210427E0,4.437653065E0,1.140837073E0,7.985261440E0,9.206447427E0
4.126723031E0,4.480748653E0,1.150413871E0,8.066663742E0,9.299012017E0
4.129235687E0,4.533421040E0,1.159990668E0,8.172008514E0,9.416963833E0
4.131748447E0,4.552574635E0,1.169567585E0,8.267777443E0,9.510518807E0
4.134261312E0,4.562151432E0,1.188721180E0,8.349180222E0,9.588278996E0
4.136774281E0,4.566939831E0,1.212663174E0,8.411429405E0,9.647778813E0
4.139287354E0,4.547786236E0,1.250970364E0,8.459313393E0,9.685415302E0
4.141800531E0,4.523844242E0,1.298854470E0,8.531139374E0,9.743332524E0
4.144313812E0,4.523844242E0,1.370680451E0,8.574234962E0,9.790885395E0
4.146827197E0,4.533421040E0,1.428141356E0,8.598176956E0,9.824466450E0
4.149340687E0,4.547786236E0,1.476025343E0,8.598176956E0,9.838173480E0
4.151854281E0,4.542997837E0,1.519120932E0,8.593388557E0,9.838337494E0
4.154367979E0,4.542997837E0,1.538274646E0,8.579023361E0,9.828772053E0
4.156881781E0,4.547786236E0,1.538274646E0,8.574234962E0,9.826807911E0
4.159395635E0,4.566939831E0,1.504755735E0,8.588600159E0,9.843032151E0
4.161909541E0,4.557363033E0,1.461660147E0,8.598176956E0,9.840460110E0
4.164423447E0,4.552574635E0,1.432929754E0,8.612542152E0,9.846578381E0
4.166937354E0,4.533421040E0,1.408987641E0,8.646060944E0,9.863646503E0
4.169451260E0,4.485537052E0,1.380257249E0,8.703521729E0,9.888197166E0
4.171965166E0,4.437653065E0,1.351526856E0,8.775347710E0,9.926032288E0
4.174478916E0,4.361038208E0,1.322796464E0,8.842385292E0,9.947674220E0
4.176992250E0,4.284423828E0,1.303642869E0,8.918999672E0,9.980196762E0
4.179505531E0,4.198232651E0,1.265335560E0,8.976460457E0,9.990148838E0
4.182018760E0,4.145560265E0,1.231816769E0,9.043498039E0,1.002436528E1
4.184531885E0,4.092887878E0,1.227028370E0,9.115324020E0,1.006709798E1
4.187044854E0,4.054580688E0,1.212663174E0,9.191938400E0,1.011938279E1
4.189557822E0,3.987542868E0,1.203086376E0,9.258976936E0,1.015266314E1
4.192070531E0,3.901351690E0,1.179144382E0,9.306860924E0,1.016014698E1
4.194583239E0,3.848679304E0,1.164779186E0,9.369110107E0,1.019555134E1
4.197095947E0,3.810372114E0,1.136048675E0,9.455301285E0,1.025730299E1
4.199608708E0,3.767276287E0,1.131260276E0,9.503185272E0,1.028506931E1
4.202121520E0,3.728969097E0,1.116895080E0,9.546280861E0,1.030942013E1
4.204634385E0,3.705027103E0,1.097741485E0,9.551069260E0,1.030316389E1
4.207147302E0,3.661931515E0,1.097741485E0,9.589376450E0,1.032331921E1
4.209660270E0,3.657143116E0,1.088164687E0,9.579799652E0,1.031170983E1
4.212173343E0,3.652354717E0,1.092953086E0,9.575011253E0,1.030607015E1
4.214686468E0,3.642777920E0,1.126471877E0,9.575011253E0,1.030628984E1
4.217199645E0,3.609259129E0,1.193509579E0,9.551069260E0,1.027979283E1
4.219712875E0,3.585317135E0,1.250970364E0,9.536704063E0,1.026489894E1
4.222226156E0,3.508702517E0,1.303642869E0,9.522338867E0,1.023158910E1
4.224739489E0,3.369838953E0,1.370680451E0,9.412205696E0,1.009079757E1
4.227252875E0,2.828749418E0,1.576581836E0,8.899846077E0,9.470728259E0
4.229766312E0,2.895787001E0,1.653196216E0,9.100958824E0,9.692579203E0
4.232279750E0,3.096899986E0,1.586158633E0,9.148842812E0,9.788156799E0
4.234793187E0,3.403357744E0,1.485602140E0,9.120112419E0,9.847147211E0
4.237306625E0,3.743334293E0,1.375468850E0,9.182361603E0,1.001100548E1
4.239819750E0,4.049792290E0,1.294066072E0,9.302072525E0,1.022760861E1
4.242332666E0,4.255693436E0,1.255758762E0,9.416994095E0,1.040997764E1
4.244845583E0,4.418499470E0,1.255758762E0,9.555857658E0,1.060256965E1
4.247358500E0,4.480748653E0,1.279700756E0,9.689932823E0,1.075218771E1
4.249871416E0,4.562151432E0,1.351526856E0,9.785700798E0,1.088116679E1
4.252384333E0,4.581305027E0,1.447294950E0,9.867103577E0,1.097464129E1
4.254897250E0,4.586093426E0,1.543063045E0,9.914987564E0,1.103269119E1
4.257410166E0,4.571728230E0,1.672349930E0,9.972448349E0,1.109716988E1
4.259923083E0,4.542997837E0,1.787271619E0,1.009215832E1,1.121092452E1
4.262436052E0,4.471171856E0,1.878251195E0,1.014483070E1,1.124441174E1
4.264949072E0,4.361038208E0,1.935712099E0,1.009215832E1,1.116321168E1
