"Time (s)","Acceleration x (m/s^2)","Acceleration y (m/s^2)","Acceleration z (m/s^2)","Absolute acceleration (m/s^2)"
3.094307300E-2,-1.428141356E0,4.080916882E0,9.211092949E0,1.017534784E1
3.344901100E-2,-1.351526856E0,4.061763287E0,9.129689217E0,1.008344044E1
3.595729200E-2,-1.260547161E0,4.061763287E0,9.038709641E0,9.989252830E0
3.846796900E-2,-1.164779186E0,4.018667698E0,8.962095261E0,9.890680062E0
4.098109400E-2,-1.040280581E0,3.975571871E0,8.828020096E0,9.737622615E0
4.349656300E-2,-9.493009448E-1,3.937264681E0,8.737040520E0,9.630114355E0
4.601416700E-2,-8.535329103E-1,3.884592295E0,8.679579735E0,9.547443642E0
4.853364600E-2,-7.960720658E-1,3.803189516E0,8.665214539E0,9.496521691E0
5.105463600E-2,-7.673416734E-1,3.731363297E0,8.650849342E0,9.452464210E0
5.357677100E-2,-7.338228226E-1,3.673902512E0,8.660426140E0,9.436049837E0
5.609963600E-2,-7.529764175E-1,3.621230125E0,8.679579735E0,9.434796526E0
5.862276100E-2,-7.625532150E-1,3.582922935E0,8.679579735E0,9.420930344E0
6.114182300E-2,-7.864952683E-1,3.535038710E0,8.703521729E0,9.426895776E0
6.365385500E-2,-8.008604646E-1,3.525461912E0,8.713098526E0,9.433363403E0
6.616588600E-2,-7.960720658E-1,3.506308317E0,8.717886925E0,9.430242902E0
6.867791700E-2,-7.864952683E-1,3.496731520E0,8.717886925E0,9.425882376E0
7.118994800E-2,-7.721300721E-1,3.501519918E0,8.746617317E0,9.453049301E0
7.370203200E-2,-7.625532150E-1,3.506308317E0,8.732252121E0,9.440758048E0
7.621421900E-2,-7.386112213E-1,3.530250311E0,8.703521729E0,9.421226262E0
7.872651100E-2,-7.194576263E-1,3.539827108E0,8.670002937E0,9.392387671E0
8.123895900E-2,-7.194576263E-1,3.554192305E0,8.641272545E0,9.371312256E0
8.375156300E-2,-7.098808289E-1,3.558980942E0,8.622118950E0,9.354742718E0
8.626432300E-2,-6.907271743E-1,3.549403906E0,8.588600159E0,9.318767343E0
8.877724000E-2,-7.098808289E-1,3.563769341E0,8.535927773E0,9.277200313E0
9.129031300E-2,-7.194576263E-1,3.578134537E0,8.526350975E0,9.274660478E0
9.380354200E-2,-7.290344238E-1,3.573346138E0,8.497620583E0,9.247153583E0
9.631687500E-2,-7.529764175E-1,3.582922935E0,8.497620583E0,9.252776114E0
9.883031300E-2,-7.721300721E-1,3.558980942E0,8.521562576E0,9.267122473E0
1.013438550E-1,-7.912836671E-1,3.558980942E0,8.535927773E0,9.281946893E0
1.038574480E-1,-8.295909166E-1,3.535038710E0,8.583811760E0,9.320222320E0
1.063710940E-1,-8.678981066E-1,3.525461912E0,8.607753754E0,9.342138594E0
1.088847400E-1,-9.062053561E-1,3.501519918E0,8.650849342E0,9.376515570E0
1.113983860E-1,-9.109937549E-1,3.482366323E0,8.698733330E0,9.414071721E0
1.139115110E-1,-9.349357486E-1,3.491943121E0,8.741828918E0,9.459775074E0
1.164245320E-1,-9.636662006E-1,3.511096716E0,8.765770912E0,9.491848733E0
1.189375520E-1,-9.684545994E-1,3.506308317E0,8.775347710E0,9.499412074E0
1.214505730E-1,-9.588778019E-1,3.535038710E0,8.799289703E0,9.531182749E0
1.239635940E-1,-9.636662006E-1,3.568557739E0,8.818443298E0,9.561809405E0
1.264766150E-1,-9.540894032E-1,3.602076530E0,8.861538887E0,9.613121937E0
1.289896360E-1,-9.493009448E-1,3.640383720E0,8.909422874E0,9.671162385E0
1.315026570E-1,-9.636662006E-1,3.697844505E0,8.957306862E0,9.738380397E0
1.340156770E-1,-1.083376288E0,3.927687883E0,9.019556046E0,9.897112081E0
1.365286980E-1,-1.150413871E0,4.066551685E0,9.014767647E0,9.956220689E0
1.390417190E-1,-1.126471877E0,4.109647274E0,9.096170425E0,1.004482235E1
1.415545840E-1,-1.078587890E0,4.104858875E0,9.153631210E0,1.008970676E1
1.440674480E-1,-1.054645896E0,4.104858875E0,9.153631210E0,1.008717546E1
1.465803130E-1,-1.006761789E0,4.109647274E0,9.139266014E0,1.007119423E1
1.490931770E-1,-9.828197956E-1,4.104858875E0,9.100958824E0,1.003211108E1
1.516060420E-1,-9.684545994E-1,4.095282078E0,9.091382027E0,1.001810695E1
1.541189070E-1,-9.397241473E-1,4.037821293E0,9.091382027E0,9.992012281E0
1.566317710E-1,-7.721300721E-1,3.807977915E0,9.220669746E0,1.000587983E1
1.591446360E-1,-6.955155730E-1,3.721786499E0,9.215881348E0,9.963328042E0
1.616575000E-1,-6.667851806E-1,3.736151695E0,9.153631210E0,9.909207653E0
1.641703650E-1,-6.428431273E-1,3.769670486E0,9.029132843E0,9.805554689E0
1.666832300E-1,-6.476315856E-1,3.784035683E0,8.871115685E0,9.666180539E0
1.691960940E-1,-6.428431273E-1,3.803189516E0,8.741828918E0,9.554950059E0
1.717089590E-1,-6.284779310E-1,3.812766314E0,8.636484146E0,9.461555363E0
1.742218230E-1,-6.284779310E-1,3.817554712E0,8.545504570E0,9.380530734E0
1.767346880E-1,-6.332663298E-1,3.831919909E0,8.502408981E0,9.347491370E0
1.792475520E-1,-6.811503768E-1,3.942053080E0,8.468890190E0,9.366207844E0
1.817604170E-1,-7.290344238E-1,3.970783472E0,8.483255386E0,9.394904711E0
1.842732820E-1,-7.481880188E-1,3.989937067E0,8.540716171E0,9.456384924E0
1.867861460E-1,-7.481880188E-1,3.985148668E0,8.655637741E0,9.558308424E0
1.892988020E-1,-7.386112213E-1,3.994725466E0,8.765770912E0,9.661372458E0
1.918114590E-1,-7.242460251E-1,4.004302502E0,8.861538887E0,9.751196966E0
1.943241150E-1,-7.003039718E-1,3.985148668E0,8.981248856E0,9.850617573E0
1.968367710E-1,-6.955155730E-1,3.961206675E0,9.129689217E0,9.976278135E0
1.993494270E-1,-6.859387755E-1,3.875015497E0,9.292495728E0,1.009141883E1
2.018620840E-1,-6.572083831E-1,3.831919909E0,9.460089684E0,1.022784581E1
2.043747400E-1,-6.428431273E-1,3.798400879E0,9.613318443E0,1.035649497E1
2.068873960E-1,-6.572083831E-1,3.764882088E0,9.713874817E0,1.043866006E1
2.094000520E-1,-6.811503768E-1,3.740940094E0,9.756970406E0,1.047172718E1
2.119127090E-1,-6.811503768E-1,3.731363297E0,9.780912399E0,1.049062845E1
2.144253650E-1,-6.667851806E-1,3.731363297E0,9.704298019E0,1.041830478E1
2.169380210E-1,-6.332663298E-1,3.736151695E0,9.608530045E0,1.032878044E1
2.194506770E-1,-5.853823423E-1,3.755305290E0,9.507973671E0,1.023946061E1
2.219633340E-1,-5.805938840E-1,3.807977915E0,9.397840500E0,1.015663286E1
2.244759900E-1,-5.997475386E-1,3.865438700E0,9.297284126E0,1.008666474E1
2.269886460E-1,-5.949591398E-1,3.937264681E0,9.201516151E0,1.002616223E1
2.295011460E-1,-5.422866940E-1,4.013879299E0,9.134477615E0,9.992196115E0
2.320136460E-1,-5.374982953E-1,4.109647274E0,9.067440033E0,9.969783041E0
2.345261460E-1,-4.991910458E-1,4.219780445E0,9.005190849E0,9.957369178E0
2.370386980E-1,-4.513070285E-1,4.296394825E0,8.942941666E0,9.931711442E0
2.395513020E-1,-3.890577853E-1,4.387374401E0,8.871115685E0,9.904398699E0
2.420640110E-1,-3.459621370E-1,4.478354454E0,8.770559311E0,9.853834738E0
2.445768230E-1,-3.315969408E-1,4.497508049E0,8.684368134E0,9.785488494E0
2.470897400E-1,-2.885012925E-1,4.497508049E0,8.607753754E0,9.716184247E0
2.496027610E-1,-2.501940727E-1,4.463989258E0,8.555081367E0,9.652938121E0
2.521158340E-1,-2.214636505E-1,4.468777657E0,8.531139374E0,9.633242388E0
2.546289590E-1,-1.831564307E-1,4.440047264E0,8.555081367E0,9.640382938E0
2.571421360E-1,-1.400607973E-1,4.440047264E0,8.569446564E0,9.652411675E0
2.596553650E-1,-5.386953801E-2,4.406527996E0,8.588600159E0,9.653208979E0
2.621686460E-1,9.935937077E-2,4.344278812E0,8.593388557E0,9.629587612E0
2.646819270E-1,1.520318091E-1,4.296394825E0,8.531139374E0,9.553138813E0
2.671952090E-1,2.334346622E-1,4.291606426E0,8.421006203E0,9.454402304E0
2.697084900E-1,4.201824069E-1,4.162319660E0,8.368333817E0,9.355771966E0
2.722213550E-1,3.818751574E-1,4.191050053E0,8.229470253E0,9.243100661E0
2.747342190E-1,2.525882721E-1,4.238934040E0,8.042721748E0,9.094929123E0
2.772470320E-1,9.935937077E-2,4.305971622E0,7.903858185E0,9.001235365E0
2.797597400E-1,-2.513911761E-2,4.291606426E0,7.822455406E0,8.922405857E0
2.822724480E-1,-1.256955862E-1,4.277241230E0,7.798513412E0,8.895358529E0
2.847851570E-1,-2.070984542E-1,4.238934040E0,7.788936615E0,8.870117539E0
2.872978650E-1,-3.028665185E-1,4.181473255E0,7.769783020E0,8.828701767E0
2.898105730E-1,-3.172317147E-1,4.042609692E0,7.717110634E0,8.717633028E0
2.923232820E-1,-1.161187813E-1,3.827131510E0,7.731475830E0,8.627638013E0
2.948359900E-1,5.147533491E-2,3.635595322E0,7.697957039E0,8.513444992E0
2.973486980E-1,1.233013868E-1,3.558980942E0,7.544728279E0,8.342929544E0
2.998614070E-1,1.520318091E-1,3.535038710E0,7.386710644E0,8.190427735E0
3.023741150E-1,1.280897856E-1,3.530250311E0,7.319673061E0,8.127526560E0
3.048868230E-1,1.233013868E-1,3.501519918E0,7.286154270E0,8.084793691E0
3.073995320E-1,1.759738177E-1,3.458424330E0,7.319673061E0,8.097485990E0
3.099122400E-1,2.717418969E-1,3.420117140E0,7.482479095E0,8.231557466E0
3.124250000E-1,3.722983599E-1,3.400963545E0,7.726687431E0,8.450257852E0
3.149378130E-1,4.584896266E-1,3.377021551E0,8.033144951E0,8.726162106E0
3.174506770E-1,5.494692922E-1,3.362656355E0,8.363545418E0,9.030961534E0
3.199635940E-1,6.452373862E-1,3.343502760E0,8.631695747E0,9.279090121E0
3.224765630E-1,7.649474144E-1,3.329137564E0,8.775347710E0,9.416741947E0
3.249895840E-1,8.750807047E-1,3.314772367E0,8.823231697E0,9.465880818E0
3.275026570E-1,9.900023937E-1,3.324349165E0,8.799289703E0,9.458271586E0
3.300157820E-1,1.085770488E0,3.300406933E0,8.875904083E0,9.531697476E0
3.325289590E-1,1.195903778E0,3.233369350E0,9.048286438E0,9.682786307E0
3.350421360E-1,1.310825467E0,3.128024578E0,9.230246544E0,9.833628650E0
3.375553130E-1,1.387439847E0,3.070563793E0,9.278130531E0,9.871021097E0
3.400682820E-1,1.444900751E0,3.027467966E0,9.172784805E0,9.766948426E0
3.425810940E-1,1.507149935E0,3.041833162E0,9.024344444E0,9.641734417E0
3.450939070E-1,1.550245643E0,3.008314371E0,8.952518463E0,9.570830880E0
3.476067190E-1,1.588552833E0,2.979583979E0,8.986037254E0,9.599494066E0
3.501192710E-1,1.612494826E0,2.936488390E0,9.048286438E0,9.648553834E0
3.526318230E-1,1.641225219E0,2.821566820E0,9.115324020E0,9.682148085E0
3.551442710E-1,1.655590534E0,2.639607430E0,9.153631210E0,9.669409068E0
3.576567190E-1,1.679532528E0,2.452859640E0,9.148842812E0,9.619702424E0
3.601691670E-1,1.741781712E0,2.342726469E0,9.105747223E0,9.562259321E0
3.626816670E-1,1.832761407E0,2.313995838E0,9.053074837E0,9.522171765E0
3.651942190E-1,1.957259893E0,2.304419041E0,9.067440033E0,9.558225890E0
3.677068750E-1,2.091335297E0,2.290053844E0,9.124900818E0,9.637522756E0
3.702196360E-1,2.215833664E0,2.242169857E0,9.340379715E0,9.857988523E0
3.727325000E-1,2.316390038E0,2.132036686E0,9.733028412E0,1.022952029E1
3.752454690E-1,2.388216257E0,2.007538080E0,1.016398430E1,1.063204415E1
3.777585420E-1,2.469619036E0,1.892616391E0,1.045607758E1,1.090919673E1
3.802717190E-1,2.541445017E0,1.816002011E0,1.051353836E1,1.096773883E1
3.827850000E-1,2.589329243E0,1.792060018E0,1.040819359E1,1.087412520E1
3.852983860E-1,2.589329243E0,1.787271619E0,1.021186924E1,1.068556218E1
3.878118750E-1,2.594117641E0,1.792060018E0,9.996390343E0,1.048182929E1
3.903254170E-1,2.689885616E0,1.859097600E0,9.780912399E0,1.031300033E1
3.928390110E-1,2.665943623E0,1.868674397E0,9.527127266E0,1.006803622E1
3.953526050E-1,2.527079821E0,1.859097600E0,9.258976936E0,9.776043689E0
3.978657300E-1,2.378639460E0,1.844732404E0,9.053074837E0,9.540394505E0
4.003785940E-1,2.292448044E0,1.849520802E0,8.909422874E0,9.383701891E0
4.028913550E-1,2.220622063E0,1.844732404E0,8.804078102E0,9.265311177E0
4.054041150E-1,2.124854088E0,1.806425214E0,8.693944931E0,9.130326139E0
4.079168750E-1,2.043451071E0,1.763329506E0,8.650849342E0,9.062130962E0
4.104296360E-1,1.971625090E0,1.753752708E0,8.674791336E0,9.067246483E0
4.129423960E-1,1.904587507E0,1.734599113E0,8.789712906E0,9.159439973E0
4.154551570E-1,1.866280198E0,1.672349930E0,8.995614052E0,9.338138371E0
4.179679170E-1,1.847126603E0,1.629254222E0,9.191938400E0,9.516200795E0
4.204806770E-1,1.842338204E0,1.610100627E0,9.297284126E0,9.613850748E0
4.229934900E-1,1.842338204E0,1.567005038E0,9.397840500E0,9.704077540E0
4.255063020E-1,1.832761407E0,1.543063045E0,9.460089684E0,9.758757849E0
4.280191670E-1,1.823184609E0,1.538274646E0,9.517550468E0,9.811934464E0
4.305320840E-1,1.789665818E0,1.528697729E0,9.589376450E0,9.874004313E0
4.330450520E-1,1.799242616E0,1.504755735E0,9.675567627E0,9.955811002E0
4.355580730E-1,1.842338204E0,1.519120932E0,9.780912399E0,1.006817689E1
4.380711460E-1,1.851915002E0,1.547851443E0,9.838373184E0,1.013010465E1
4.405842710E-1,1.823184609E0,1.600523829E0,9.876680374E0,1.017027501E1
4.430974480E-1,1.789665818E0,1.686715126E0,9.876680374E0,1.017824773E1
4.456106250E-1,1.746570110E0,1.768117905E0,9.876680374E0,1.018457477E1
4.481238550E-1,1.727416515E0,1.916558504E0,9.895833969E0,1.022666584E1
4.506371360E-1,1.746570110E0,2.079364061E0,9.924564362E0,1.028937509E1
4.531504170E-1,1.617283225E0,2.194285870E0,9.919775963E0,1.028749001E1
4.556636980E-1,1.435323954E0,2.337938070E0,9.862315178E0,1.023676560E1
4.581769800E-1,1.286883354E0,2.495955229E0,9.809642792E0,1.020367350E1
4.606898960E-1,1.181538582E0,2.673126221E0,9.723451614E0,1.015318416E1
4.632026050E-1,1.171961784E0,2.792836189E0,9.661202431E0,1.012483387E1
4.657153130E-1,1.229422569E0,2.864662409E0,9.570222855E0,1.006513468E1
4.682280210E-1,1.148019671E0,2.984372377E0,9.426570892E0,9.954128111E0
4.707407300E-1,1.057040095E0,3.099294186E0,9.306860924E0,9.866134930E0
4.732534380E-1,9.900023937E-1,3.242946148E0,9.167996407E0,9.774914965E0
4.757661460E-1,9.756371975E-1,3.372233152E0,9.029132843E0,9.687572672E0
4.782788550E-1,9.660604000E-1,3.458424330E0,8.904634476E0,9.601379416E0
4.807915630E-1,9.421183467E-1,3.535038710E0,8.808866501E0,9.538354926E0
4.833043230E-1,9.516952038E-1,3.597288132E0,8.732252121E0,9.492019425E0
4.858171360E-1,9.181763530E-1,3.688267708E0,8.708310127E0,9.501633111E0
4.883300000E-1,8.990227580E-1,3.764882088E0,8.722675323E0,9.542936857E0
4.908428650E-1,9.947907925E-1,3.975571871E0,8.746617317E0,9.659093897E0
4.933557820E-1,1.109712481E0,4.200626850E0,8.775347710E0,9.792009761E0
4.958687500E-1,1.124077678E0,4.195838451E0,8.847173691E0,9.856018124E0
4.983817710E-1,1.167173386E0,4.147954464E0,8.918999672E0,9.905371023E0
5.008948440E-1,1.128866076E0,4.061763287E0,9.009979248E0,9.947461267E0
5.034079690E-1,1.095347285E0,3.975571871E0,9.057863235E0,9.952378799E0
5.059210940E-1,1.042674899E0,3.922899485E0,9.100958824E0,9.965127336E0
5.084342190E-1,9.708487988E-1,3.875015497E0,9.105747223E0,9.943486561E0
5.109473440E-1,8.271966577E-1,3.946841478E0,9.086593628E0,9.941227073E0
5.134604690E-1,7.457938194E-1,3.860650301E0,9.105747223E0,9.918440485E0
5.159735940E-1,7.793126702E-1,3.760093689E0,9.206304550E0,9.975052695E0
5.184867190E-1,7.888894677E-1,3.659537315E0,9.287707329E0,1.001379386E1
5.209998440E-1,7.457938194E-1,3.578134537E0,9.369110107E0,1.005681259E1
5.235129690E-1,6.979097724E-1,3.496731520E0,9.373898506E0,1.002916659E1
5.260260940E-1,6.404489279E-1,3.434482336E0,9.330802917E0,9.963419435E0
5.285392190E-1,4.920084476E-1,3.463212729E0,9.254188538E0,9.893225976E0
5.310523440E-1,4.249708056E-1,3.448847532E0,9.163208008E0,9.799976045E0
5.335654690E-1,4.489128292E-1,3.367444754E0,9.105747223E0,9.718839405E0
5.360785940E-1,4.489128292E-1,3.329137564E0,9.033921242E0,9.638278511E0
5.385917190E-1,3.339911401E-1,3.429693937E0,8.875904083E0,9.521345697E0
5.411048440E-1,2.861070931E-1,3.381809950E0,8.770559311E0,9.404318499E0
5.436179690E-1,2.765302956E-1,3.319560766E0,8.679579735E0,9.296830485E0
5.461310940E-1,2.908954918E-1,3.314772367E0,8.555081367E0,9.179420093E0
5.486442190E-1,3.196259141E-1,3.333925962E0,8.449736595E0,9.089294339E0
5.511573440E-1,3.100491166E-1,3.343502760E0,8.377910614E0,9.025770184E0
5.536704690E-1,2.669534981E-1,3.329137564E0,8.373122215E0,9.014632367E0
5.561835940E-1,2.238578647E-1,3.319560766E0,8.421006203E0,9.054443191E0
5.586967190E-1,1.951274425E-1,3.286041737E0,8.468890190E0,9.086156837E0
5.612098440E-1,1.807622313E-1,3.228580952E0,8.540716171E0,9.132373331E0
5.637229690E-1,1.663970202E-1,3.166331768E0,8.617330551E0,9.182141943E0
5.662355210E-1,1.807622313E-1,3.118447781E0,8.641272545E0,9.188524514E0
5.687480730E-1,1.951274425E-1,3.051409960E0,8.660426140E0,9.184343111E0
5.712606250E-1,1.855506301E-1,3.022679567E0,8.698733330E0,9.210807909E0
5.737732300E-1,2.094926536E-1,2.965218782E0,8.741828918E0,9.233416618E0
5.762858860E-1,2.047042400E-1,2.950853586E0,8.842385292E0,9.324012997E0
5.787985940E-1,2.094926536E-1,2.907757998E0,8.986037254E0,9.447105868E0
5.813113550E-1,1.903390288E-1,2.883816004E0,9.206304550E0,9.649283246E0
5.838241670E-1,1.903390288E-1,2.893392801E0,9.450512886E0,9.885350002E0
5.863370320E-1,2.047042400E-1,2.917334795E0,9.689932823E0,1.012163743E1
5.888499480E-1,2.334346622E-1,2.922123194E0,9.819219589E0,1.024745671E1
5.913629170E-1,2.861070931E-1,2.965218782E0,9.867103577E0,1.030699339E1
5.938759380E-1,3.244143426E-1,3.008314371E0,9.852738380E0,1.030687410E1
5.963890630E-1,3.100491166E-1,3.056198359E0,9.785700798E0,1.025653055E1
5.989022920E-1,2.861070931E-1,3.089717388E0,9.699509621E0,1.018374674E1
6.014155730E-1,2.956839204E-1,3.123236179E0,9.613318443E0,1.011226605E1
6.039289070E-1,3.004723191E-1,3.151966572E0,9.527127266E0,1.003948857E1
6.064422920E-1,3.148375154E-1,3.199850559E0,9.484031677E0,1.001424102E1
6.089557300E-1,2.908954918E-1,3.228580952E0,9.421782494E0,9.963851690E0
6.114692190E-1,2.669534981E-1,3.252522945E0,9.326014519E0,9.880522075E0
6.139827090E-1,2.621650994E-1,3.257311344E0,9.287707329E0,9.845827297E0
6.164961980E-1,2.573766708E-1,3.257311344E0,9.215881348E0,9.777974686E0
6.190095320E-1,2.621650994E-1,3.242946148E0,9.148842812E0,9.710136716E0
6.215228650E-1,2.382230759E-1,3.214215755E0,9.062651634E0,9.618710298E0
6.240360420E-1,2.477998734E-1,3.180696964E0,8.990825653E0,9.540083012E0
6.265488020E-1,2.382230759E-1,3.137601376E0,8.928576469E0,9.466824726E0
6.290615630E-1,2.382230759E-1,3.094505787E0,8.861538887E0,9.389333722E0
6.315743230E-1,2.238578647E-1,3.060986757E0,8.799289703E0,9.319187280E0
6.340870840E-1,2.142810524E-1,3.032256365E0,8.741828918E0,9.255272436E0
6.365998440E-1,1.903390288E-1,2.970007181E0,8.713098526E0,9.207348018E0
6.391126050E-1,1.951274425E-1,2.950853586E0,8.679579735E0,9.169553750E0
6.416253650E-1,2.142810524E-1,2.950853586E0,8.693944931E0,9.183579461E0
6.441381770E-1,2.430114746E-1,2.970007181E0,8.760982513E0,9.253907922E0
6.466510420E-1,2.621650994E-1,2.984372377E0,8.775347710E0,9.272644523E0
6.491639070E-1,1.999158412E-1,3.027467966E0,8.746617317E0,9.257907060E0
6.516767710E-1,1.185129806E-1,3.099294186E0,8.713098526E0,9.248662374E0
6.541896360E-1,7.062894851E-2,3.161543369E0,8.732252121E0,9.287226283E0
6.567025000E-1,-5.985504016E-3,3.209427357E0,8.751405716E0,9.321349784E0
6.592153650E-1,-7.302315533E-2,3.281253338E0,8.760982513E0,9.355574298E0
6.617280730E-1,-1.735796183E-1,3.353079557E0,8.804078102E0,9.422582641E0
6.642407820E-1,-2.597708702E-1,3.420117140E0,8.823231697E0,9.466472402E0
6.667534900E-1,-3.507505357E-1,3.458424330E0,8.842385292E0,9.501131640E0
6.692661980E-1,-4.273650050E-1,3.511096716E0,8.818443298E0,9.501335864E0
6.717789070E-1,-4.656722248E-1,3.568557739E0,8.823231697E0,9.528949183E0
6.742916150E-1,-4.800374508E-1,3.626018524E0,8.818443298E0,9.546904655E0
6.768043230E-1,-4.848258495E-1,3.659537315E0,8.784924507E0,9.529017161E0
6.793170320E-1,-4.513070285E-1,3.673902512E0,8.775347710E0,9.524072927E0
6.818297400E-1,-4.082113802E-1,3.726574898E0,8.751405716E0,9.520561906E0
6.843424480E-1,-3.938461840E-1,3.736151695E0,8.713098526E0,9.488520972E0
6.868551570E-1,-3.411737382E-1,3.774458885E0,8.655637741E0,9.448968415E0
6.893679170E-1,-2.597708702E-1,3.731363297E0,8.607753754E0,9.385306476E0
6.918807300E-1,-1.927332431E-1,3.750516891E0,8.559869766E0,9.347453850E0
6.943935940E-1,-2.214636505E-1,3.803189516E0,8.507197380E0,9.321250126E0
6.969065110E-1,-1.352723986E-1,3.822343111E0,8.488043785E0,9.309967389E0
6.994194800E-1,5.147533491E-2,3.779247284E0,8.464101791E0,9.269648261E0
7.019325000E-1,1.663970202E-1,3.788824081E0,8.430583000E0,9.244328294E0
7.044455210E-1,2.382230759E-1,3.827131510E0,8.406641006E0,9.239875477E0
7.069585420E-1,2.430114746E-1,3.851073503E0,8.349180222E0,9.197751469E0
7.094715630E-1,2.286462635E-1,3.913322687E0,8.334815025E0,9.210619690E0
7.119845840E-1,2.238578647E-1,3.970783472E0,8.353968620E0,9.252352427E0
7.144976050E-1,2.047042400E-1,4.018667698E0,8.363545418E0,9.281189894E0
7.170103650E-1,1.711854190E-1,4.047398090E0,8.377910614E0,9.305918655E0
7.195231250E-1,1.280897856E-1,4.071340084E0,8.377910614E0,9.315664406E0
7.220358860E-1,1.089361757E-1,4.128800869E0,8.387487411E0,9.349267821E0
7.245486460E-1,6.584054977E-2,4.181473255E0,8.392275810E0,9.376531706E0
7.270614070E-1,1.316810958E-2,4.191050053E0,8.444948196E0,9.427736949E0
7.295742190E-1,-1.197100850E-3,4.200626850E0,8.502408981E0,9.483471192E0
7.320870840E-1,-3.950432688E-2,4.200626850E0,8.564658165E0,9.539402288E0
7.346000000E-1,-7.781155407E-2,4.200626850E0,8.670002937E0,9.634327766E0
7.371129690E-1,-1.400607973E-1,4.181473255E0,8.732252121E0,9.682797257E0
7.396259900E-1,-1.831564307E-1,4.114435673E0,8.780136108E0,9.698088330E0
7.421390630E-1,-2.501940727E-1,4.028244495E0,8.799289703E0,9.680746359E0
7.446521880E-1,-3.124433160E-1,3.898957491E0,8.799289703E0,9.629485429E0
7.471653650E-1,-4.034229815E-1,3.793612480E0,8.756194115E0,9.551187420E0
7.496785420E-1,-4.560954273E-1,3.649960518E0,8.746617317E0,9.488601020E0
7.521917190E-1,-4.848258495E-1,3.496731520E0,8.751405716E0,9.436593105E0
7.547048960E-1,-5.566518903E-1,3.458424330E0,8.770559311E0,9.444218909E0
7.572180730E-1,-6.236895323E-1,3.381809950E0,8.780136108E0,9.429550215E0
7.597312500E-1,-6.332663298E-1,3.290830135E0,8.784924507E0,9.402419254E0
7.622444270E-1,-6.093243361E-1,3.166331768E0,8.804078102E0,9.375965243E0
7.647571880E-1,-5.853823423E-1,3.070563793E0,8.813654900E0,9.351553196E0
7.672699480E-1,-5.949591398E-1,3.051409960E0,8.804078102E0,9.336855485E0
7.697827090E-1,-6.428431273E-1,3.065775394E0,8.813654900E0,9.353755328E0
7.722954690E-1,-6.811503768E-1,3.065775394E0,8.832808495E0,9.374510681E0
7.748082300E-1,-7.003039718E-1,3.046621561E0,8.842385292E0,9.378704934E0
7.773209900E-1,-7.050924301E-1,3.094505787E0,8.904634476E0,9.453339968E0
7.798337500E-1,-7.146692276E-1,3.175908566E0,8.952518463E0,9.526003052E0
7.823465110E-1,-7.003039718E-1,3.266888142E0,9.019556046E0,9.618491308E0
7.848592710E-1,-6.332663298E-1,3.343502760E0,9.100958824E0,9.716351603E0
7.873720320E-1,-5.805938840E-1,3.396175146E0,9.167996407E0,9.794041709E0
7.898847920E-1,-4.848258495E-1,3.472789526E0,9.254188538E0,9.896228003E0
7.923975520E-1,-4.129997790E-1,3.558980942E0,9.345168114E0,1.000845049E1
7.949103130E-1,-3.411737382E-1,3.654748917E0,9.464878082E0,1.015172430E1
7.974230730E-1,-2.501940727E-1,3.697844505E0,9.570222855E0,1.026283667E1
7.999358860E-1,-1.400607973E-1,3.740940094E0,9.637260437E0,1.033881224E1
8.024487500E-1,-2.992752194E-2,3.721786499E0,9.713874817E0,1.040249751E1
8.049616670E-1,2.274491638E-2,3.726574898E0,9.737816811E0,1.042655044E1
8.074746360E-1,7.541735470E-2,3.721786499E0,9.752182007E0,1.043850738E1
8.099876050E-1,1.424549967E-1,3.664325714E0,9.747393608E0,1.041437749E1
8.125005730E-1,1.663970202E-1,3.597288132E0,9.718663216E0,1.036439022E1
8.150135420E-1,1.999158412E-1,3.496731520E0,9.670779228E0,1.028547853E1
8.175265110E-1,2.238578647E-1,3.415328741E0,9.584588051E0,1.017737249E1
8.200394800E-1,2.142810524E-1,3.329137564E0,9.474454880E0,1.004461889E1
8.225524480E-1,2.047042400E-1,3.247734547E0,9.378686905E0,9.927207642E0
8.250654170E-1,1.663970202E-1,3.180696964E0,9.215881348E0,9.750743057E0
8.275783860E-1,9.935937077E-2,3.084928989E0,8.837596893E0,9.361077823E0
8.300913550E-1,7.062894851E-2,3.027467966E0,8.540716171E0,9.061698707E0
8.326043230E-1,7.062894851E-2,3.032256365E0,8.425794601E0,8.955086922E0
8.351172920E-1,9.457096457E-2,3.089717388E0,8.416217804E0,8.965936612E0
8.376302610E-1,8.499415964E-2,3.147178173E0,8.406641006E0,8.976835048E0
8.401432300E-1,2.753331885E-2,3.185485363E0,8.306084633E0,8.896016918E0
8.426561980E-1,-1.017535701E-1,3.166331768E0,8.100182533E0,8.697641504E0
8.451691670E-1,-2.358288616E-1,3.156754971E0,7.870339394E0,8.483098453E0
8.476821360E-1,-3.028665185E-1,3.185485363E0,7.712322235E0,8.349787984E0
8.501951050E-1,-2.885012925E-1,3.228580952E0,7.712322235E0,8.365816291E0
8.527080730E-1,-2.501940727E-1,3.295618534E0,7.793725014E0,8.465568391E0
8.552210420E-1,-2.214636505E-1,3.329137564E0,7.851185799E0,8.530728076E0
8.577340110E-1,-2.023100406E-1,3.386598349E0,7.899069786E0,8.596818087E0
8.602469800E-1,-1.927332431E-1,3.410540342E0,8.004414558E0,8.702849186E0
8.627598440E-1,-1.687912196E-1,3.424905539E0,8.066663742E0,8.765245710E0
8.652726050E-1,-1.544260085E-1,3.415328741E0,8.152854919E0,8.840665198E0
8.677853650E-1,-1.304839998E-1,3.424905539E0,8.200738907E0,8.888145062E0
8.702981250E-1,-1.017535701E-1,3.429693937E0,8.272565842E0,8.955919824E0
8.728107300E-1,-7.302315533E-2,3.429693937E0,8.330026627E0,9.008744446E0
8.753231770E-1,-5.985504016E-3,3.439270735E0,8.353968620E0,9.034235481E0
8.778356250E-1,4.189852998E-2,3.453635931E0,8.397064209E0,9.079649991E0
8.803480730E-1,9.935937077E-2,3.448847532E0,8.464101791E0,9.140319509E0
8.828605730E-1,1.616086215E-1,3.463212729E0,8.526350975E0,9.204271872E0
8.853731250E-1,2.142810524E-1,3.448847532E0,8.569446564E0,9.239906930E0
8.878857300E-1,2.573766708E-1,3.448847532E0,8.684368134E0,9.347675750E0
8.903983860E-1,2.621650994E-1,3.448847532E0,8.799289703E0,9.454669699E0
8.929111460E-1,2.573766708E-1,3.453635931E0,8.895057678E0,9.545464630E0
8.954240110E-1,2.765302956E-1,3.453635931E0,8.995614052E0,9.639768790E0
8.979369800E-1,3.100491166E-1,3.434482336E0,9.120112419E0,9.750294863E0
9.004500520E-1,3.052607179E-1,3.429693937E0,9.254188538E0,9.874005778E0
9.029631770E-1,2.717418969E-1,3.439270735E0,9.402628899E0,1.001558071E1
9.054763550E-1,2.286462635E-1,3.501519918E0,9.560646057E0,1.018424636E1
9.079895320E-1,1.663970202E-1,3.544615507E0,9.656414032E0,1.028777522E1
9.105025000E-1,7.541735470E-2,3.487154722E0,9.560646057E0,1.017702751E1
9.130147400E-1,-3.950432688E-2,3.242946148E0,8.918999672E0,9.490353811E0
9.155269800E-1,-1.640028208E-1,2.998737574E0,7.717110634E0,8.280888871E0
9.180392190E-1,-4.908113554E-2,2.936488390E0,7.425017834E0,7.984751897E0
9.205514590E-1,2.274491638E-2,2.936488390E0,8.219893456E0,8.728695768E0
9.230637500E-1,-1.197100850E-3,3.032256365E0,9.086593628E0,9.579183882E0
9.255761460E-1,-9.217676520E-2,3.190273762E0,9.551069260E0,1.007021684E1
9.280886460E-1,-1.927332431E-1,3.338714361E0,9.728240013E0,1.028702160E1
9.306012500E-1,-2.932897210E-1,3.491943121E0,9.780912399E0,1.038970322E1
9.331139590E-1,-3.363853395E-1,3.568557739E0,9.824007988E0,1.045748021E1
9.356267710E-1,-2.789244950E-1,3.587711334E0,9.895833969E0,1.052981488E1
9.381396880E-1,-1.640028208E-1,3.549403906E0,9.972448349E0,1.058654292E1
9.406527610E-1,3.591302549E-3,3.424905539E0,1.001075554E1,1.058041669E1
9.431659380E-1,1.759738177E-1,3.238157749E0,1.001075554E1,1.052292064E1
9.456792190E-1,3.387795389E-1,3.056198359E0,9.948506355E0,1.041287178E1
9.481926050E-1,4.632780254E-1,2.879027605E0,9.756970406E0,1.018341288E1
9.507060420E-1,5.973533392E-1,2.783259392E0,9.570222855E0,9.984614632E0
9.532194800E-1,6.979097724E-1,2.673126221E0,9.531915665E0,9.924217757E0
9.557329170E-1,7.888894677E-1,2.524685621E0,9.742605209E0,1.009528307E1
9.582463550E-1,8.798691034E-1,2.337938070E0,1.004427433E1,1.035024497E1
9.607597920E-1,9.133879542E-1,2.179920673E0,1.025017643E1,1.051914676E1
9.632731770E-1,9.516952038E-1,2.026691675E0,1.032200241E1,1.056205173E1
9.657865110E-1,1.013944387E0,1.811213613E0,1.024538803E1,1.045354265E1
9.682996880E-1,1.052251697E0,1.619677424E0,9.948506355E0,1.013426698E1
9.708128130E-1,1.071405292E0,1.428141356E0,9.752182007E0,9.914259979E0
9.733259380E-1,1.133654475E0,1.308431268E0,9.737816811E0,9.890512681E0
9.758390630E-1,1.186326981E0,1.203086376E0,9.843161583E0,9.987122633E0
9.783521880E-1,1.215057373E0,1.102529883E0,1.000596714E1,1.013959146E1
9.808653130E-1,1.205480576E0,1.021126986E0,1.010652351E1,1.022925712E1
9.833784380E-1,1.066616893E0,9.732429981E-1,1.025017643E1,1.035137625E1
9.858915630E-1,8.080430627E-1,9.493009448E-1,1.042734718E1,1.050160346E1
9.884046880E-1,5.351040959E-1,9.684545994E-1,1.063803673E1,1.069542267E1
9.909170320E-1,2.047042400E-1,1.069011092E0,1.087745667E1,1.093177717E1
9.934293750E-1,-1.640028208E-1,1.140837073E0,1.115518475E1,1.121456878E1
9.959417190E-1,-5.853823423E-1,1.159990668E0,1.136108589E1,1.143514423E1
9.984541150E-1,-9.828197956E-1,1.274912357E0,1.143770027E1,1.155042526E1
1.000966563E0,-1.394622445E0,1.404199243E0,1.145685387E1,1.162653206E1
1.003479115E0,-1.796848416E0,1.552639842E0,1.148558426E1,1.172851229E1
1.005991823E0,-2.064998865E0,1.677138329E0,1.152389145E1,1.182696442E1
1.008504688E0,-2.309207439E0,1.816002011E0,1.155741024E1,1.192493328E1
1.011017709E0,-2.510320425E0,1.902193308E0,1.155262184E1,1.197426906E1
1.013530886E0,-2.625242233E0,1.974019289E0,1.147600746E1,1.193680846E1
1.016044219E0,-2.783259392E0,2.007538080E0,1.135629749E1,1.186348325E1
1.018557709E0,-2.855085611E0,2.036268473E0,1.124616432E1,1.178024257E1
1.021071302E0,-2.764105797E0,2.021903276E0,1.117433834E1,1.168735261E1
1.023585000E0,-2.697068214E0,2.017114878E0,1.110729980E1,1.160668076E1
1.026098750E0,-2.677914619E0,2.002749681E0,1.100674343E1,1.150350529E1
1.028612552E0,-2.673126221E0,1.969230890E0,1.098758984E1,1.147826662E1
1.031126407E0,-2.816778183E0,2.012326479E0,1.084393787E1,1.138308771E1
1.033640261E0,-2.917334795E0,1.974019289E0,1.086309147E1,1.141991028E1
1.036154011E0,-2.960430384E0,1.878251195E0,1.098280144E1,1.152882921E1
1.038667188E0,-2.955641985E0,1.701080322E0,1.106899261E1,1.158240438E1
1.041180313E0,-2.931699991E0,1.509544134E0,1.111687660E1,1.159562563E1
1.043693438E0,-2.888604403E0,1.313219666E0,1.115518475E1,1.159770357E1
1.046206563E0,-2.859874010E0,1.107318282E0,1.116476154E1,1.157829579E1
1.048719636E0,-2.802412987E0,9.157821536E-1,1.111208820E1,1.149655078E1
1.051232709E0,-2.706645012E0,7.577648163E-1,1.103547382E1,1.138779247E1
1.053745782E0,-2.596511841E0,6.332663298E-1,1.092534065E1,1.124748720E1
1.056258855E0,-2.486378431E0,5.614402890E-1,1.076732349E1,1.106492423E1
1.058771927E0,-2.381033659E0,5.470750928E-1,1.060930634E1,1.088696438E1
1.061285000E0,-2.261323452E0,5.614402890E-1,1.048480797E1,1.074057713E1
1.063798073E0,-2.098517895E0,6.093243361E-1,1.041298199E1,1.063979546E1
1.066311198E0,-1.902193308E0,7.146692276E-1,1.042255878E1,1.061879575E1
1.068824375E0,-1.686715126E0,8.870517015E-1,1.047044277E1,1.064246402E1
1.071337605E0,-1.476025343E0,1.016338587E0,1.053269196E1,1.068406265E1
1.073850886E0,-1.270123959E0,1.073799491E0,1.058536434E1,1.071523208E1
1.076364219E0,-1.102529883E0,1.145625472E0,1.063803673E1,1.075620078E1
1.078877605E0,-9.301473498E-1,1.198297977E0,1.067155552E1,1.077883061E1
1.081390990E0,-7.673416734E-1,1.217451572E0,1.068113232E1,1.077764302E1
1.083904375E0,-5.470750928E-1,1.246181965E0,1.073859310E1,1.082449271E1
1.086417761E0,-1.304839998E-1,1.188721180E0,1.105462742E1,1.111912188E1
1.088931146E0,5.626374111E-2,1.097741485E0,1.096364784E1,1.101861044E1
1.091444323E0,2.238578647E-1,9.971849918E-1,1.081520748E1,1.086338820E1
1.093957500E0,4.297592044E-1,8.726865053E-1,1.061409473E1,1.065857785E1
1.096470209E0,6.212953329E-1,8.200140595E-1,1.042734718E1,1.047797691E1
1.098982917E0,7.649474144E-1,8.726865053E-1,1.043213558E1,1.049648413E1
1.101495625E0,7.649474144E-1,8.439561129E-1,1.076732349E1,1.082740328E1
1.104008386E0,6.979097724E-1,7.817068696E-1,1.092534065E1,1.097548232E1
1.106521198E0,8.894459605E-1,7.817068696E-1,1.083436108E1,1.089887883E1
1.109034063E0,1.124077678E0,8.056488633E-1,1.030763721E1,1.040000027E1
1.111547032E0,1.353921056E0,8.870517015E-1,9.536704063E0,9.673090889E0
1.114060105E0,1.478419542E0,1.073799491E0,8.789712906E0,8.977629011E0
1.116573282E0,1.516726732E0,1.318008065E0,8.186373711E0,8.429372442E0
1.119086511E0,1.473631144E0,1.571793437E0,7.788936615E0,8.081439039E0
1.121599792E0,1.353921056E0,1.825578809E0,7.578247070E0,7.911742467E0
1.124113125E0,1.167173386E0,2.069787264E0,7.468113422E0,7.837029483E0
1.126626511E0,1.013944387E0,2.280477047E0,7.420229435E0,7.828694888E0
1.129139896E0,8.702923059E-1,2.476801634E0,7.348403454E0,7.803267800E0
1.131653282E0,8.319851160E-1,2.630030632E0,7.348403454E0,7.849095087E0
1.134166667E0,6.979097724E-1,2.773682594E0,7.295731068E0,7.836331093E0
1.136679896E0,5.734112859E-1,2.898181200E0,7.290942669E0,7.866771877E0
1.139192865E0,4.824316502E-1,3.003525972E0,7.415441036E0,8.015152795E0
1.141705834E0,4.010287821E-1,3.070563793E0,7.592612267E0,8.199813847E0
1.144218802E0,3.196259141E-1,3.113659382E0,7.784148216E0,8.389874786E0
1.146731407E0,2.525882721E-1,3.128024578E0,8.037933350E0,8.628830229E0
1.149243282E0,2.382230759E-1,3.113659382E0,8.291719437E0,8.860261632E0
1.151755157E0,1.663970202E-1,3.108870983E0,8.488043785E0,9.040998510E0
1.154267032E0,9.935937077E-2,3.075352192E0,8.679579735E0,9.208841825E0
1.156778907E0,1.472434103E-1,2.984372377E0,8.923788071E0,9.410746657E0
1.159290834E0,2.430114746E-1,2.869450808E0,9.110535622E0,9.554824008E0
1.161802813E0,3.244143426E-1,2.716221809E0,9.239823341E0,9.636256585E0
1.164314844E0,4.441244006E-1,2.539050817E0,9.369110107E0,9.717214094E0
1.166826927E0,5.925649405E-1,2.361880064E0,9.460089684E0,9.768464949E0
1.169339063E0,7.218518257E-1,2.213439465E0,9.512762070E0,9.793519618E0
1.171851250E0,8.655039072E-1,2.064998865E0,9.555857658E0,9.814669272E0
1.174363490E0,9.995791912E-1,1.945288897E0,9.551069260E0,9.798276963E0
1.176875782E0,1.119289279E0,1.868674397E0,9.565434456E0,9.810315429E0
1.179388125E0,1.277306557E0,1.835155606E0,9.570222855E0,9.827943510E0
1.181900521E0,1.420958757E0,1.806425214E0,9.555857658E0,9.828362602E0
1.184412969E0,1.559822440E0,1.849520802E0,9.584588051E0,9.885246651E0
1.186925469E0,1.713051319E0,1.921346903E0,9.642048836E0,9.979740703E0
1.189438021E0,1.823184609E0,2.012326479E0,9.651625633E0,1.002633220E1
1.191950625E0,1.866280198E0,2.151190281E0,9.651625633E0,1.006302632E1
1.194463282E0,1.928529501E0,2.323572636E0,9.718663216E0,1.017696568E1
1.196976042E0,2.330755472E0,2.261323452E0,1.007779312E1,1.058810271E1
1.199488907E0,2.546233416E0,2.304419041E0,1.019271564E1,1.075570100E1
1.202001875E0,2.555810213E0,2.428917646E0,1.015440750E1,1.074913013E1
1.204514948E0,2.512714624E0,2.553416014E0,1.014483070E1,1.075877587E1
1.207028125E0,2.445677042E0,2.697068214E0,1.018313885E1,1.081442693E1
1.209541407E0,2.354697466E0,2.850297213E0,1.018313885E1,1.083351795E1
1.212054792E0,2.230198860E0,2.993949175E0,1.014483070E1,1.080995415E1
1.214568230E0,2.115277290E0,3.137601376E0,1.005863953E1,1.074686789E1
1.217081719E0,1.985990286E0,3.238157749E0,9.986813545E0,1.068486162E1
1.219595209E0,1.851915002E0,3.333925962E0,9.934141159E0,1.064104375E1
1.222108698E0,1.736993313E0,3.444059134E0,9.871891975E0,1.059872352E1
1.224622188E0,1.655590534E0,3.506308317E0,9.886257172E0,1.061947545E1
1.227135625E0,1.578976035E0,3.482366323E0,9.953294754E0,1.066246299E1
1.229648750E0,1.545457244E0,3.381809950E0,1.002033234E1,1.068794352E1
1.232161563E0,1.430535555E0,3.415328741E0,9.953294754E0,1.061974476E1
1.234674375E0,1.310825467E0,3.482366323E0,9.852738380E0,1.053193203E1
1.237187188E0,1.186326981E0,3.501519918E0,9.790489197E0,1.046526121E1
1.239700000E0,1.085770488E0,3.463212729E0,9.761758804E0,1.041463753E1
1.242212813E0,9.756371975E-1,3.410540342E0,9.766547203E0,1.039081795E1
1.244725625E0,9.038111567E-1,3.290830135E0,9.766547203E0,1.034562139E1
1.247238438E0,8.271966577E-1,3.147178173E0,9.723451614E0,1.025351140E1
1.249751250E0,7.410054207E-1,3.017891169E0,9.694721222E0,1.018058818E1
1.252264063E0,6.931213737E-1,2.888604403E0,9.646837234E0,1.009385562E1
1.254776875E0,6.691793799E-1,2.802412987E0,9.575011253E0,9.999107965E0
1.257289688E0,6.260837317E-1,2.725798607E0,9.531915665E0,9.933749298E0
1.259802500E0,6.069301367E-1,2.687491417E0,9.507973671E0,9.899118023E0
1.262315313E0,6.260837317E-1,2.639607430E0,9.464878082E0,9.845985239E0
1.264828177E0,7.314286232E-1,2.577358246E0,9.469666481E0,9.841358982E0
1.267341094E0,8.655039072E-1,2.352303267E0,9.685144424E0,1.000422162E1
1.269854063E0,9.804255962E-1,2.299630642E0,9.618106842E0,9.937681554E0
1.272367084E0,1.148019671E0,2.318784237E0,9.421782494E0,9.770603608E0
1.274880157E0,1.282094955E0,2.366668463E0,9.235034943E0,9.619290903E0
1.277393282E0,1.406593442E0,2.476801634E0,9.048286438E0,9.486018074E0
1.279906459E0,1.511938334E0,2.601300240E0,8.904634476E0,9.399214627E0
1.282419688E0,1.617283225E0,2.735375404E0,8.832808495E0,9.387033053E0
1.284932917E0,1.602918029E0,2.874239206E0,8.895057678E0,9.484337000E0
1.287446146E0,1.502361536E0,3.065775394E0,8.918999672E0,9.550111209E0
1.289958802E0,1.507149935E0,3.228580952E0,8.952518463E0,9.635498053E0
1.292471198E0,1.578976035E0,3.353079557E0,8.942941666E0,9.680522376E0
1.294983594E0,1.468842745E0,3.491943121E0,9.067440033E0,9.826985017E0
1.297495990E0,1.353921056E0,3.659537315E0,9.201516151E0,9.994659328E0
1.300008438E0,1.310825467E0,3.822343111E0,9.282918930E0,1.012428536E1
1.302520938E0,1.272518158E0,3.961206675E0,9.369110107E0,1.025137479E1
1.305033542E0,1.478419542E0,4.037821293E0,9.330802917E0,1.027392857E1
1.307546250E0,1.799242616E0,3.975571871E0,9.249400139E0,1.022711341E1
1.310059063E0,1.736993313E0,3.956418276E0,9.450512886E0,1.039146694E1
1.312572032E0,1.698686123E0,3.975571871E0,9.589376450E0,1.051888050E1
1.315085157E0,1.655590534E0,3.903745890E0,9.785700798E0,1.066490282E1
1.317598438E0,1.617283225E0,3.846285105E0,9.905410767E0,1.074833367E1
1.320111875E0,1.602918029E0,3.769670486E0,9.895833969E0,1.071014901E1
1.322625417E0,1.641225219E0,3.678690910E0,9.809642792E0,1.060450276E1
1.325139063E0,1.703474522E0,3.587711334E0,9.718663216E0,1.049885293E1
1.327652813E0,1.732204914E0,3.477577925E0,9.627683640E0,1.038202169E1
1.330166615E0,1.722628117E0,3.386598349E0,9.584588051E0,1.031022910E1
1.332680469E0,1.665167332E0,3.309983969E0,9.546280861E0,1.024012961E1
1.335194323E0,1.665167332E0,3.204638958E0,9.541492462E0,1.020208662E1
1.337708177E0,1.674744129E0,3.142389774E0,9.517550468E0,1.016184768E1
1.340222032E0,1.741781712E0,3.046621561E0,9.445724487E0,1.007657767E1
1.342735677E0,1.756146908E0,2.950853586E0,9.340379715E0,9.951596961E0
1.345249115E0,1.756146908E0,2.883816004E0,9.239823341E0,9.837417450E0
1.347762344E0,1.708262920E0,2.859874010E0,9.115324020E0,9.704956134E0
1.350275365E0,1.698686123E0,2.850297213E0,8.990825653E0,9.583562734E0
1.352788386E0,1.693897724E0,2.850297213E0,8.885480881E0,9.483947184E0
1.355301407E0,1.665167332E0,2.802412987E0,8.760982513E0,9.347786657E0
1.357814427E0,1.598129630E0,2.826355219E0,8.665214539E0,9.253553109E0
1.360327448E0,1.569399238E0,2.831143618E0,8.579023361E0,9.169407286E0
1.362840469E0,1.559822440E0,2.864662409E0,8.473678589E0,9.079788852E0
1.365353490E0,1.626860023E0,2.879027605E0,8.401852608E0,9.029208200E0
1.367866511E0,1.622071624E0,2.902969599E0,8.296507835E0,8.938142486E0
1.370379532E0,1.559822440E0,2.936488390E0,8.200738907E0,8.849188026E0
1.372892552E0,1.502361536E0,3.003525972E0,8.095394135E0,8.764340514E0
1.375405573E0,1.507149935E0,3.056198359E0,8.018779755E0,8.712788192E0
1.377918646E0,1.535880446E0,3.123236179E0,7.879916191E0,8.614325984E0
1.380431771E0,1.487996340E0,3.180696964E0,7.760206223E0,8.517732498E0
1.382944948E0,1.420958757E0,3.286041737E0,7.726687431E0,8.515802531E0
1.385458177E0,1.382651448E0,3.333925962E0,7.731475830E0,8.532438448E0
1.387971459E0,1.420958757E0,3.405751944E0,7.707533836E0,8.545428481E0
1.390484740E0,1.454477549E0,3.472789526E0,7.626131058E0,8.504918985E0
1.392998021E0,1.406593442E0,3.515885115E0,7.578247070E0,8.471704782E0
1.395511302E0,1.296460271E0,3.578134537E0,7.544728279E0,8.450253298E0
1.398024584E0,1.234210968E0,3.626018524E0,7.549516678E0,8.465606246E0
1.400537865E0,1.277306557E0,3.683479309E0,7.515997887E0,8.466980341E0
1.403050990E0,1.296460271E0,3.669114113E0,7.448959827E0,8.404178135E0
1.405564011E0,1.215057373E0,3.683479309E0,7.410652637E0,8.364338393E0
1.408076875E0,1.128866076E0,3.736151695E0,7.396287441E0,8.362908347E0
1.410589740E0,1.090558887E0,3.793612480E0,7.324461460E0,8.320369584E0
1.413102605E0,1.119289279E0,3.812766314E0,7.286154270E0,8.299279457E0
1.415615521E0,1.090558887E0,3.807977915E0,7.180809498E0,8.200856024E0
1.418128490E0,9.612720013E-1,3.875015497E0,7.094618320E0,8.140847504E0
1.420641459E0,8.750807047E-1,3.913322687E0,7.118560314E0,8.170297525E0
1.423154427E0,8.128314614E-1,3.980360270E0,7.166444302E0,8.237832651E0
1.425667396E0,7.984662652E-1,3.985148668E0,7.137713909E0,8.213763944E0
1.428180365E0,7.410054207E-1,3.999513865E0,7.128137112E0,8.207042029E0
1.430693334E0,5.781996846E-1,4.066551685E0,7.209539890E0,8.297507030E0
1.433206302E0,3.244143426E-1,4.229357243E0,7.209539890E0,8.364817558E0
1.435719323E0,1.472434103E-1,4.468777657E0,7.166444302E0,8.446867958E0
1.438232396E0,1.089361757E-1,4.569334030E0,7.233481884E0,8.556514520E0
1.440745469E0,8.499415964E-2,4.554968834E0,7.377133846E0,8.670471087E0
1.443258542E0,8.978256583E-2,4.459200859E0,7.659649849E0,8.863564126E0
1.445771615E0,1.999158412E-1,4.219780445E0,7.975684643E0,9.025411839E0
1.448284688E0,3.531447649E-1,3.922899485E0,8.234258652E0,9.127807356E0
1.450797761E0,5.638344884E-1,3.630806923E0,8.387487411E0,9.156998052E0
1.453310677E0,7.026981711E-1,3.372233152E0,8.440159798E0,9.116031953E0
1.455823594E0,9.277531505E-1,3.175908566E0,8.425794601E0,9.052134322E0
1.458336511E0,1.176750183E0,3.013102770E0,8.363545418E0,8.967297321E0
1.460849427E0,1.363497853E0,2.888604403E0,8.330026627E0,8.921463187E0
1.463362344E0,1.483207941E0,2.797624588E0,8.344391823E0,8.924992102E0
1.465875261E0,1.583764434E0,2.730587006E0,8.406641006E0,8.979756577E0
1.468388177E0,1.665167332E0,2.692279816E0,8.521562576E0,9.090554526E0
1.470900834E0,1.727416515E0,2.697068214E0,8.650849342E0,9.224713498E0
1.473413490E0,1.804031014E0,2.711433411E0,8.756194115E0,9.342233909E0
1.475926146E0,1.851915002E0,2.730587006E0,8.818443298E0,9.415446711E0
1.478438855E0,1.885433793E0,2.735375404E0,8.871115685E0,9.472794344E0
1.480951667E0,1.918952703E0,2.768894196E0,8.899846077E0,9.516113426E0
1.483464584E0,1.947683096E0,2.807201385E0,8.909422874E0,9.542099613E0
1.485977605E0,1.971625090E0,2.811989784E0,8.904634476E0,9.543956579E0
1.488490730E0,2.033874273E0,2.840720415E0,8.899846077E0,9.561045823E0
1.491003907E0,2.081758261E0,2.883816004E0,8.914211273E0,9.597566088E0
1.493517084E0,2.144007683E0,2.893392801E0,8.923788071E0,9.623018465E0
1.496030261E0,2.316390038E0,2.974795580E0,8.962095261E0,9.722871130E0
1.498543438E0,2.512714624E0,3.008314371E0,8.885480881E0,9.711614728E0
1.501056615E0,2.570175409E0,2.950853586E0,8.770559311E0,9.603960076E0
1.503569792E0,2.579752445E0,2.955641985E0,8.751405716E0,9.590518455E0
1.506082969E0,2.555810213E0,2.931699991E0,8.813654900E0,9.633667182E0
1.508596146E0,2.460042238E0,2.902969599E0,8.832808495E0,9.617564463E0
1.511109323E0,2.364274263E0,2.859874010E0,8.804078102E0,9.554080980E0
1.513622500E0,2.263717651E0,2.840720415E0,8.732252121E0,9.457607371E0
1.516135677E0,2.148796082E0,2.792836189E0,8.660426140E0,9.349879117E0
1.518648855E0,2.043451071E0,2.783259392E0,8.631695747E0,9.296687399E0
1.521162032E0,1.938106298E0,2.792836189E0,8.598176956E0,9.245801046E0
1.523675209E0,1.827973008E0,2.807201385E0,8.588600159E0,9.218780702E0
1.526188230E0,1.693897724E0,2.821566820E0,8.574234962E0,9.184118576E0
1.528700730E0,1.593341231E0,2.840720415E0,8.550292969E0,9.149641447E0
1.531213230E0,1.511938334E0,2.869450808E0,8.526350975E0,9.122410121E0
1.533725730E0,1.444900751E0,2.888604403E0,8.545504570E0,9.135503376E0
1.536238230E0,1.392228246E0,2.879027605E0,8.588600159E0,9.164668686E0
1.538750782E0,1.373074651E0,2.883816004E0,8.641272545E0,9.212671705E0
1.541263386E0,1.315613866E0,2.855085611E0,8.713098526E0,9.262852672E0
1.543776094E0,1.248576164E0,2.783259392E0,8.780136108E0,9.294959137E0
1.546288907E0,1.195903778E0,2.725798607E0,8.851962090E0,9.339025470E0
1.548801823E0,1.200692177E0,2.716221809E0,8.995614052E0,9.473151260E0
1.551314844E0,1.286883354E0,2.721010208E0,9.134477615E0,9.617621672E0
1.553827969E0,1.420958757E0,2.740163803E0,9.268553734E0,9.769017851E0
1.556341198E0,1.555034041E0,2.754528999E0,9.412205696E0,9.929510408E0
1.558854532E0,1.684320927E0,2.764105797E0,9.541492462E0,1.007557920E1
1.561367969E0,1.804031014E0,2.778470993E0,9.699509621E0,1.024963003E1
1.563881511E0,1.914164305E0,2.783259392E0,9.847949982E0,1.041118037E1
1.566395105E0,2.043451071E0,2.802412987E0,9.967659950E0,1.055383607E1
1.568908750E0,2.177526474E0,2.797624588E0,1.011610031E1,1.071931949E1
1.571422448E0,2.330755472E0,2.797624588E0,1.028848362E1,1.091384532E1
1.573936198E0,2.455253839E0,2.816778183E0,1.043692398E1,1.108566159E1
1.576449948E0,2.589329243E0,2.855085611E0,1.057099915E1,1.125176265E1
1.578963177E0,2.742558002E0,2.883816004E0,1.070507431E1,1.142088592E1
1.581476407E0,2.905363798E0,2.941276789E0,1.082957268E1,1.159188907E1
1.583989636E0,3.053804159E0,2.979583979E0,1.098280144E1,1.178242623E1
1.586502865E0,3.216609955E0,3.022679567E0,1.112166500E1,1.196555907E1
1.589015834E0,3.388992548E0,3.056198359E0,1.130362511E1,1.219005986E1
1.591528802E0,3.566163540E0,3.080140591E0,1.147600746E1,1.240578638E1
1.594041771E0,3.728969097E0,3.075352192E0,1.168669701E1,1.264681338E1
1.596554740E0,3.901351690E0,3.041833162E0,1.183992577E1,1.283187968E1
1.599067709E0,4.045003891E0,3.013102770E0,1.198836613E1,1.300622033E1
1.601580677E0,4.188655853E0,2.955641985E0,1.212244129E1,1.316184790E1
1.604093646E0,4.298789024E0,2.879027605E0,1.225651741E1,1.330378164E1
1.606606615E0,4.384980202E0,2.773682594E0,1.234749699E1,1.339335837E1
1.609119584E0,4.475960255E0,2.692279816E0,1.242889977E1,1.348184484E1
1.611632552E0,4.533421040E0,2.610877037E0,1.252466774E1,1.357335210E1
1.614145417E0,4.538209438E0,2.495955229E0,1.259170532E1,1.361529215E1
1.616658282E0,4.542997837E0,2.390610456E0,1.262522411E1,1.362901800E1
1.619171146E0,4.495113850E0,2.304419041E0,1.266353130E1,1.363383368E1
1.621684011E0,4.466383457E0,2.213439465E0,1.270662689E1,1.364940520E1
1.624196875E0,4.432864666E0,2.132036686E0,1.275451088E1,1.367016523E1
1.626709740E0,4.408922195E0,2.050633669E0,1.279760647E1,1.369023099E1
1.629222605E0,4.361038208E0,1.997961283E0,1.285985565E1,1.372539220E1
1.631735000E0,4.308365822E0,1.935712099E0,1.290295124E1,1.374027467E1
1.634247396E0,4.255693436E0,1.868674397E0,1.295083523E1,1.375961496E1
1.636759792E0,4.193444252E0,1.820790410E0,1.299871922E1,1.377922181E1
1.639272188E0,4.159925461E0,1.777694821E0,1.303702641E1,1.379961000E1
1.641784584E0,4.092887878E0,1.744175911E0,1.303702641E1,1.377526545E1
1.644296980E0,4.049792290E0,1.734599113E0,1.303223801E1,1.375677575E1
1.646809427E0,4.011485100E0,1.725022316E0,1.298914242E1,1.370348625E1
1.649321927E0,3.982754469E0,1.715445518E0,1.292689323E1,1.363486909E1
1.651834480E0,3.944447279E0,1.715445518E0,1.287422085E1,1.357376072E1
1.654347136E0,3.886986494E0,1.715445518E0,1.274493408E1,1.343446173E1
1.656859844E0,3.834314108E0,1.710657120E0,1.260128212E1,1.328234255E1
1.659372605E0,3.776853085E0,1.681926727E0,1.237143898E1,1.304400242E1
1.661885417E0,3.733757496E0,1.653196216E0,1.213201809E1,1.280077598E1
1.664398230E0,3.705027103E0,1.648407817E0,1.186386776E1,1.253777621E1
1.666911042E0,3.719392300E0,1.619677424E0,1.166754341E1,1.235268405E1
1.669423855E0,3.719392300E0,1.600523829E0,1.149516106E1,1.218746419E1
1.671936667E0,3.724180698E0,1.552639842E0,1.136587429E1,1.206081717E1
1.674449532E0,3.709815502E0,1.509544134E0,1.124137592E1,1.193356557E1
1.676962448E0,3.676296711E0,1.437718153E0,1.112645340E1,1.180593733E1
1.679475417E0,3.637989521E0,1.375468850E0,1.100674343E1,1.167370050E1
1.681988438E0,3.556586742E0,1.298854470E0,1.091097546E1,1.154927347E1
1.684501511E0,3.484760523E0,1.222239971E0,1.082957268E1,1.144189979E1
1.687014636E0,3.374627352E0,1.174355984E0,1.077690029E1,1.135380120E1
1.689527761E0,3.240551949E0,1.088164687E0,1.071943951E1,1.125129604E1
1.692040886E0,3.087323189E0,1.025915384E0,1.070507431E1,1.118850673E1
1.694554011E0,2.905363798E0,9.780313969E-1,1.073859310E1,1.116758998E1
1.697067136E0,2.713827610E0,9.014169574E-1,1.081520748E1,1.118687292E1
1.699580000E0,2.527079821E0,8.391677141E-1,1.086787987E1,1.118933187E1
1.702092865E0,2.325966835E0,7.864952683E-1,1.090618706E1,1.117915975E1
1.704605730E0,2.153584480E0,7.242460251E-1,1.091576385E1,1.114972461E1
1.707118594E0,2.009932280E0,6.859387755E-1,1.092534065E1,1.112984313E1
1.709631459E0,1.866280198E0,6.428431273E-1,1.092534065E1,1.110222128E1
1.712144323E0,1.713051319E0,6.093243361E-1,1.094449425E1,1.109449302E1
1.714657188E0,1.574187636E0,5.614402890E-1,1.093012905E1,1.105716975E1
1.717169844E0,1.478419542E0,5.183446407E-1,1.086787987E1,1.098021941E1
1.719682448E0,1.420958757E0,4.848258495E-1,1.083914948E1,1.094263868E1
1.722195052E0,1.430535555E0,3.459621370E-1,1.102589703E1,1.112369215E1
1.724707657E0,1.325190663E0,2.693476975E-1,1.069070911E1,1.077589624E1
1.727220261E0,1.262941360E0,2.501940727E-1,1.024059963E1,1.032121595E1
1.729732865E0,1.195903778E0,3.028665185E-1,9.847949982E0,9.924919789E0
1.732245469E0,1.167173386E0,3.699041605E-1,9.584588051E0,9.662476437E0
1.734758073E0,1.171961784E0,4.417302012E-1,9.383475304E0,9.466690487E0
1.737270730E0,1.205480576E0,4.848258495E-1,9.167996407E0,9.259611095E0
1.739783438E0,1.248576164E0,5.183446407E-1,9.038709641E0,9.139250274E0
1.742296198E0,1.339555860E0,5.614402890E-1,9.005190849E0,9.121572635E0
1.744809011E0,1.440112352E0,5.997475386E-1,9.000402451E0,9.134597143E0
1.747321875E0,1.555034041E0,6.236895323E-1,8.986037254E0,9.140896293E0
1.749834792E0,1.684320927E0,6.907271743E-1,9.048286438E0,9.229600667E0
1.752347761E0,1.780089021E0,7.433996201E-1,9.081805229E0,9.284424922E0
1.754860730E0,1.914164305E0,8.248024583E-1,9.053074837E0,9.289913244E0
1.757373698E0,2.019509077E0,9.157821536E-1,8.990825653E0,9.260238646E0
1.759886667E0,2.105700493E0,9.828197956E-1,8.890269279E0,9.188949732E0
1.762399636E0,2.182314873E0,1.059434295E0,8.741828918E0,9.072181219E0
1.764912605E0,2.254140854E0,1.121683478E0,8.579023361E0,8.940859391E0
1.767425157E0,2.354697466E0,1.164779186E0,8.397064209E0,8.798408836E0
1.769937657E0,2.464830637E0,1.227028370E0,8.195950508E0,8.646073873E0
1.772450157E0,2.589329243E0,1.279700756E0,7.999626637E0,8.505074149E0
1.774962657E0,2.694674015E0,1.308431268E0,7.808090210E0,8.362985900E0
1.777475157E0,2.814383984E0,1.351526856E0,7.635707855E0,8.249328245E0
1.779987709E0,2.972401381E0,1.389834046E0,7.492055893E0,8.179102038E0
1.782500313E0,3.096899986E0,1.432929754E0,7.362768650E0,8.115074824E0
1.785012969E0,3.211821556E0,1.495178938E0,7.228693485E0,8.050178089E0
1.787525677E0,3.331531763E0,1.538274646E0,7.118560314E0,8.008701126E0
1.790038490E0,3.451241732E0,1.600523829E0,7.018003941E0,7.982801847E0
1.792551355E0,3.566163540E0,1.657984734E0,6.970119476E0,8.003061994E0
1.795064271E0,3.690661907E0,1.705868721E0,6.936600685E0,8.040360842E0
1.797577240E0,3.781641483E0,1.768117905E0,6.927023888E0,8.087688988E0
1.800090313E0,3.858256102E0,1.806425214E0,6.931812286E0,8.136297301E0
1.802603490E0,3.939658880E0,1.844732404E0,6.970119476E0,8.216234858E0
1.805116719E0,4.035427094E0,1.878251195E0,7.018003941E0,8.310528183E0
1.807630000E0,4.116829872E0,1.906981707E0,7.080253124E0,8.409212313E0
1.810143334E0,4.179079056E0,1.921346903E0,7.176021099E0,8.523588123E0
1.812656719E0,4.250905037E0,1.926135302E0,7.290942669E0,8.656675796E0
1.815170157E0,4.327519417E0,1.935712099E0,7.453748226E0,8.833615809E0
1.817683594E0,4.361038208E0,1.916558504E0,7.592612267E0,8.963236680E0
1.820197032E0,4.399345398E0,1.916558504E0,7.774571419E0,9.136268230E0
1.822709271E0,4.456806660E0,1.926135302E0,7.951742172E0,9.316830275E0
1.825221198E0,4.499902248E0,1.911770105E0,8.152854919E0,9.506472980E0
1.827733125E0,4.542997837E0,1.906981707E0,8.339603424E0,9.686299285E0
1.830245052E0,4.586093426E0,1.911770105E0,8.531139374E0,9.872560806E0
1.832756980E0,4.590881824E0,1.921346903E0,8.732252121E0,1.005087046E1
1.835268907E0,4.614823818E0,1.935712099E0,8.899846077E0,1.021033008E1
1.837780834E0,4.657919407E0,1.954865694E0,9.043498039E0,1.035869537E1
1.840292761E0,4.643554211E0,1.945288897E0,9.201516151E0,1.048878659E1
1.842804740E0,4.648342609E0,1.964442492E0,9.354744911E0,1.062908160E1
1.845316771E0,4.653131008E0,1.974019289E0,9.503185272E0,1.076377771E1
1.847828855E0,4.657919407E0,1.954865694E0,9.627683640E0,1.087244247E1
1.850340990E0,4.657919407E0,1.935712099E0,9.756970406E0,1.098370002E1
1.852853230E0,4.638765812E0,1.906981707E0,9.843161583E0,1.104728733E1
1.855365573E0,4.653131008E0,1.863885999E0,9.934141159E0,1.112712271E1
1.857878021E0,4.638765812E0,1.835155606E0,1.002990913E1,1.120200971E1
1.860390625E0,4.653131008E0,1.820790410E0,1.009215832E1,1.126137493E1
1.862903386E0,4.662707806E0,1.782483220E0,1.011610031E1,1.128067268E1
1.865416302E0,4.653131008E0,1.763329506E0,1.014004230E1,1.129519442E1
1.867929375E0,4.643554211E0,1.739387512E0,1.014483070E1,1.129184018E1
1.870442605E0,4.614823818E0,1.748964310E0,1.012088871E1,1.126001169E1
1.872955938E0,4.557363033E0,1.878251195E0,1.031721401E1,1.143425950E1
1.875469375E0,4.452018261E0,1.964442492E0,1.016398430E1,1.126880995E1
1.877982865E0,4.361038208E0,1.954865694E0,9.747393608E0,1.085595856E1
1.880496407E0,4.246116638E0,1.969230890E0,9.402628899E0,1.050318080E1
1.883010000E0,4.145560265E0,2.017114878E0,9.163208008E0,1.025762172E1
1.885523594E0,4.078522682E0,2.031480074E0,8.938153267E0,1.003253918E1
1.888037188E0,4.016273499E0,2.026691675E0,8.708310127E0,9.801662983E0
1.890550157E0,3.968389273E0,2.045845270E0,8.511985779E0,9.611841561E0
1.893063125E0,3.930082083E0,2.064998865E0,8.377910614E0,9.481516321E0
1.895576094E0,3.896563292E0,2.055422068E0,8.248623848E0,9.351350744E0
1.898089063E0,3.867832899E0,2.045845270E0,8.143278122E0,9.244381687E0
1.900602032E0,3.810372114E0,2.036268473E0,8.148066521E0,9.222597951E0
1.903115000E0,3.767276287E0,2.060210466E0,8.172008514E0,9.231389979E0
1.905628021E0,3.748122692E0,2.112883091E0,8.248623848E0,9.303359289E0
1.908141094E0,3.728969097E0,2.184709072E0,8.315661430E0,9.371680174E0
1.910654219E0,3.695450306E0,2.294842243E0,8.411429405E0,9.469677847E0
1.913167396E0,3.628412724E0,2.419340849E0,8.483255386E0,9.538564409E0
1.915680625E0,3.556586742E0,2.539050817E0,8.502408981E0,9.559657253E0
1.918193907E0,3.470395327E0,2.653972626E0,8.502408981E0,9.559193110E0
1.920707188E0,3.388992548E0,2.773682594E0,8.478466988E0,9.542692916E0
1.923220469E0,3.302801132E0,2.859874010E0,8.401852608E0,9.469873384E0
1.925733750E0,3.235763550E0,2.926911592E0,8.306084633E0,9.382324826E0
1.928247032E0,3.183091164E0,2.970007181E0,8.210315704E0,9.293131656E0
1.930760313E0,3.116053581E0,2.974795580E0,8.109759331E0,9.182994885E0
1.933273594E0,3.092111588E0,3.003525972E0,8.018779755E0,9.104018403E0
1.935786875E0,3.087323189E0,3.003525972E0,7.913434982E0,9.009727297E0
1.938300052E0,3.068169594E0,3.003525972E0,7.817667007E0,8.919122735E0
1.940813021E0,3.068169594E0,3.008314371E0,7.774571419E0,8.882993907E0
1.943325990E0,3.111265182E0,3.027467966E0,7.741052628E0,8.875214313E0
1.945838959E0,3.144783974E0,3.037044764E0,7.702745438E0,8.856951756E0
1.948351927E0,3.173514366E0,3.051409960E0,7.645284653E0,8.822282788E0
1.950864948E0,3.178302765E0,3.060986757E0,7.654861450E0,8.835618383E0
1.953378021E0,3.221398354E0,3.070563793E0,7.664438248E0,8.862808980E0
1.955891146E0,3.264493942E0,3.104082584E0,7.683591843E0,8.906729646E0
1.958404323E0,3.283647537E0,3.113659382E0,7.674015045E0,8.908856425E0
1.960917552E0,3.278859138E0,3.128024578E0,7.702745438E0,8.936875421E0
1.963430886E0,3.269282341E0,3.151966572E0,7.750629425E0,8.983059433E0
1.965944323E0,3.250128746E0,3.142389774E0,7.769783020E0,8.989298000E0
1.968457813E0,3.202244759E0,3.113659382E0,7.808090210E0,8.995305385E0
1.970971355E0,3.235763550E0,3.137601376E0,7.908646584E0,9.102823679E0
1.973484948E0,3.269282341E0,3.190273762E0,7.970896244E0,9.187014784E0
1.975998594E0,3.230975151E0,3.190273762E0,8.023568153E0,9.219256641E0
1.978512292E0,3.216609955E0,3.185485363E0,8.042721748E0,9.229261602E0
1.981026042E0,3.173514366E0,3.190273762E0,8.052298546E0,9.224345612E0
1.983539792E0,3.125630379E0,3.171120167E0,8.033144951E0,9.184605935E0
1.986053542E0,3.058592558E0,3.161543369E0,8.009202957E0,9.137706327E0
1.988566771E0,3.010708570E0,3.151966572E0,7.970896244E0,9.084847071E0
1.991079896E0,2.958036184E0,3.156754971E0,7.899069786E0,9.006130329E0
1.993592969E0,2.919728994E0,3.185485363E0,7.889492989E0,8.995345130E0
1.996106042E0,2.838326216E0,3.223792553E0,7.832032204E0,8.932505951E0
1.998619115E0,2.780865192E0,3.242946148E0,7.650073051E0,8.762050481E0
2.001132188E0,2.718616009E0,3.266888142E0,7.520786285E0,8.638614327E0
2.003645261E0,2.670732021E0,3.290830135E0,7.434594631E0,8.557778324E0
2.006158334E0,2.656366825E0,3.319560766E0,7.415441036E0,8.547779487E0
2.008671407E0,2.627636433E0,3.343502760E0,7.401075840E0,8.535772227E0
2.011184480E0,2.598906040E0,3.372233152E0,7.386710644E0,8.525829178E0
2.013697552E0,2.598906040E0,3.410540342E0,7.353191853E0,8.512081323E0
2.016210677E0,2.589329243E0,3.448847532E0,7.310096264E0,8.487442643E0
2.018723855E0,2.574964046E0,3.496731520E0,7.271789074E0,8.469739518E0
2.021237084E0,2.551021814E0,3.554192305E0,7.209539890E0,8.433116901E0
2.023750365E0,2.517503023E0,3.582922935E0,7.137713909E0,8.373895036E0
2.026263698E0,2.512714624E0,3.626018524E0,7.104195118E0,8.362495644E0
2.028777084E0,2.517503023E0,3.688267708E0,7.051522732E0,8.346562945E0
2.031290521E0,2.517503023E0,3.731363297E0,7.003638744E0,8.325373816E0
2.033804011E0,2.551021814E0,3.731363297E0,6.994061947E0,8.327525855E0
2.036317552E0,2.589329243E0,3.769670486E0,6.970119476E0,8.336522477E0
2.038831146E0,2.632424831E0,3.803189516E0,6.946177483E0,8.345255695E0
2.041344740E0,2.665943623E0,3.798400879E0,6.955754280E0,8.361675803E0
2.043858334E0,2.737769604E0,3.774458885E0,6.941389084E0,8.362105279E0
2.046371927E0,2.785653591E0,3.764882088E0,6.970119476E0,8.397426307E0
2.048885521E0,2.867056608E0,3.755305290E0,7.041945934E0,8.480055068E0
2.051399115E0,2.938882589E0,3.736151695E0,7.113771915E0,8.555794015E0
2.053912709E0,2.972401381E0,3.693056107E0,7.199963093E0,8.620516337E0
2.056426302E0,2.972401381E0,3.659537315E0,7.324461460E0,8.710632526E0
2.058939896E0,2.948459387E0,3.626018524E0,7.448959827E0,8.793658261E0
2.061453490E0,2.953247786E0,3.602076530E0,7.578247070E0,8.895305305E0
2.063967084E0,2.938882589E0,3.558980942E0,7.721899033E0,8.996171457E0
2.066480105E0,2.914940596E0,3.530250311E0,7.793725014E0,9.038899022E0
2.068993073E0,2.895787001E0,3.511096716E0,7.875127792E0,9.095659418E0
2.071506042E0,2.876633406E0,3.482366323E0,7.970896244E0,9.161718283E0
2.074019011E0,2.871845007E0,3.444059134E0,8.018779755E0,9.187484194E0
2.076532032E0,2.862268209E0,3.405751944E0,8.057086945E0,9.203715317E0
2.079045105E0,2.838326216E0,3.362656355E0,8.028356552E0,9.155220500E0
2.081558230E0,2.800018787E0,3.333925962E0,8.095394135E0,9.191875419E0
2.084071407E0,2.771288395E0,3.357867956E0,8.124124527E0,9.217196749E0
2.086584636E0,2.766499996E0,3.396175146E0,8.009202957E0,9.128792903E0
2.089097917E0,2.728192806E0,3.415328741E0,7.851185799E0,8.986023862E0
2.091611250E0,2.699462414E0,3.434482336E0,7.779359818E0,8.921950763E0
2.094124636E0,2.675520420E0,3.501519918E0,7.741052628E0,8.907465803E0
2.096638021E0,2.689885616E0,3.554192305E0,7.755417824E0,8.945069770E0
2.099151407E0,2.699462414E0,3.621230125E0,7.817667007E0,9.028639011E0
2.101664584E0,2.737769604E0,3.683479309E0,7.841609001E0,9.085936053E0
2.104177448E0,2.771288395E0,3.731363297E0,7.870339394E0,9.140314742E0
2.106690261E0,2.790441990E0,3.779247284E0,7.908646584E0,9.198693783E0
2.109203073E0,2.804807186E0,3.807977915E0,7.923011780E0,9.227228989E0
2.111715886E0,2.804807186E0,3.831919909E0,7.942165375E0,9.253569278E0
2.114228698E0,2.771288395E0,3.836708307E0,7.946953773E0,9.249564545E0
2.116741511E0,2.718616009E0,3.889380693E0,7.903858185E0,9.218954897E0
2.119254323E0,2.685097218E0,3.903745890E0,7.860762596E0,9.178266047E0
2.121767136E0,2.622848034E0,3.913322687E0,7.793725014E0,9.106897158E0
2.124279948E0,2.579752445E0,3.951629877E0,7.726687431E0,9.053850011E0
2.126792761E0,2.555810213E0,3.965995073E0,7.630919456E0,8.971745344E0
2.129305573E0,2.503137827E0,3.980360270E0,7.563881874E0,8.906249259E0
2.131818386E0,2.455253839E0,3.985148668E0,7.506421089E0,8.846244338E0
2.134331198E0,2.440888643E0,3.999513865E0,7.448959827E0,8.800059718E0
2.136843855E0,2.421735048E0,3.994725466E0,7.425017834E0,8.772315659E0
2.139356511E0,2.426523447E0,3.994725466E0,7.472901821E0,8.814199295E0
2.141869167E0,2.421735048E0,4.004302502E0,7.501632690E0,8.841591044E0
2.144381823E0,2.407369852E0,4.018667698E0,7.563881874E0,8.897046065E0
2.146894480E0,2.388216257E0,4.009090900E0,7.654861450E0,8.965115201E0
2.149407136E0,2.345120668E0,4.018667698E0,7.784148216E0,9.068750987E0
2.151919844E0,2.330755472E0,4.013879299E0,7.889492989E0,9.153564755E0
2.154432605E0,2.325966835E0,4.047398090E0,7.975684643E0,9.241379688E0
2.156945417E0,2.321178436E0,4.052186489E0,8.037933350E0,9.296045246E0
2.159458334E0,2.330755472E0,4.052186489E0,8.100182533E0,9.352304181E0
2.161971302E0,2.345120668E0,4.037821293E0,8.148066521E0,9.391196929E0
2.164484323E0,2.349909067E0,4.013879299E0,8.172008514E0,9.402926290E0
2.166997344E0,2.354697466E0,4.009090900E0,8.176796913E0,9.406243552E0
2.169510365E0,2.364274263E0,4.009090900E0,8.181585312E0,9.412807278E0
2.172023386E0,2.359485865E0,4.004302502E0,8.176796913E0,9.405403757E0
2.174536407E0,2.397793055E0,3.985148668E0,8.176796913E0,9.406956426E0
2.177049427E0,2.412158251E0,4.009090900E0,8.176796913E0,9.420792166E0
2.179562448E0,2.436100245E0,4.004302502E0,8.172008514E0,9.420761439E0
2.182075469E0,2.455253839E0,4.037821293E0,8.181585312E0,9.448312570E0
2.184588490E0,2.479195833E0,4.066551685E0,8.172008514E0,9.458592800E0
2.187101511E0,2.493561029E0,4.100070477E0,8.128912926E0,9.439684840E0
2.189614532E0,2.507926226E0,4.119224072E0,8.066663742E0,9.398338408E0
2.192127552E0,2.498349428E0,4.147954464E0,8.009202957E0,9.359199117E0
2.194640573E0,2.498349428E0,4.162319660E0,7.946953773E0,9.312396528E0
2.197153646E0,2.498349428E0,4.210203648E0,7.870339394E0,9.268754328E0
2.199666771E0,2.483984232E0,4.219780445E0,7.817667007E0,9.224567313E0
2.202179948E0,2.469619036E0,4.248510838E0,7.769783020E0,9.193388423E0
2.204693177E0,2.416946650E0,4.305971622E0,7.717110634E0,9.161703949E0
2.207206511E0,2.393004656E0,4.358644009E0,7.693168640E0,9.160190642E0
2.209719896E0,2.397793055E0,4.440047264E0,7.659649849E0,9.172440627E0
2.212233334E0,2.373851061E0,4.516661644E0,7.654861450E0,9.199581789E0
2.214746823E0,2.383427858E0,4.598064423E0,7.654861450E0,9.242284816E0
2.217260365E0,2.383427858E0,4.693832397E0,7.654861450E0,9.290301112E0
2.219773907E0,2.388216257E0,4.780023575E0,7.678803444E0,9.355010668E0
2.222287448E0,2.412158251E0,4.871003151E0,7.731475830E0,9.450973370E0
2.224800990E0,2.431311846E0,4.957194805E0,7.808090210E0,9.563018893E0
2.227314532E0,2.455253839E0,5.038597584E0,7.908646584E0,9.693421883E0
2.229828073E0,2.464830637E0,5.124788761E0,7.990049839E0,9.807127324E0
2.232341146E0,2.503137827E0,5.182249546E0,8.100182533E0,9.936516815E0
2.234854063E0,2.546233416E0,5.220556736E0,8.219893456E0,1.006499705E1
2.237366980E0,2.570175409E0,5.244498730E0,8.315661430E0,1.016173182E1
2.239879896E0,2.565387011E0,5.258863926E0,8.387487411E0,1.022676906E1
2.242392813E0,2.589329243E0,5.210979939E0,8.502408981E0,1.030290718E1
2.244905730E0,2.608482838E0,5.115211964E0,8.655637741E0,1.038699383E1
2.247418646E0,2.627636433E0,4.990713596E0,8.890269279E0,1.052846538E1
2.249931563E0,2.680308819E0,4.890156746E0,9.177573204E0,1.073897287E1
2.252444532E0,2.752134800E0,4.789600372E0,9.474454880E0,1.096721537E1
2.254957552E0,2.809595585E0,4.684255600E0,9.723451614E0,1.115264942E1
2.257470625E0,2.876633406E0,4.526238441E0,9.914987564E0,1.127248121E1
2.259983802E0,2.953247786E0,4.363432407E0,1.008258152E1,1.137627641E1
2.262497084E0,3.044227362E0,4.176684856E0,1.017835045E1,1.141537711E1
2.265010469E0,3.144783974E0,3.965995073E0,1.028369522E1,1.146181358E1
2.267523959E0,3.259705544E0,3.745728493E0,1.034115601E1,1.147151558E1
2.270037552E0,3.365050554E0,3.520673513E0,1.039382839E1,1.147825666E1
2.272551250E0,3.441664934E0,3.300406933E0,1.043692398E1,1.147462965E1
2.275065052E0,3.503914118E0,3.094505787E0,1.046565437E1,1.146225552E1
2.277578907E0,3.551798105E0,2.898181200E0,1.050396156E1,1.146071257E1
2.280092813E0,3.570951939E0,2.701856613E0,1.047044277E1,1.138779604E1
2.282606719E0,3.566163540E0,2.543839216E0,1.041777039E1,1.130126454E1
2.285120625E0,3.503914118E0,2.433706045E0,1.030284882E1,1.115118976E1
2.287634167E0,3.460818529E0,2.304419041E0,1.018792725E1,1.100370272E1
2.290147709E0,3.556586742E0,2.208651066E0,9.948506355E0,1.079352711E1
2.292661250E0,3.542221308E0,2.122459888E0,9.670779228E0,1.051551894E1
2.295174792E0,3.388992548E0,2.074575663E0,9.503185272E0,1.030046916E1
2.297688334E0,3.221398354E0,2.017114878E0,9.373898506E0,1.011514375E1
2.300201875E0,3.049015760E0,1.959654093E0,9.211092949E0,9.898533961E0
2.302715417E0,2.838326216E0,1.945288897E0,9.005190849E0,9.640213008E0
2.305228855E0,2.627636433E0,1.926135302E0,8.770559311E0,9.356130666E0
2.307742292E0,2.407369852E0,1.911770105E0,8.488043785E0,9.027578958E0
2.310255521E0,2.215833664E0,1.887827992E0,8.181585312E0,8.684017018E0
2.312768750E0,2.067393064E0,1.883039594E0,7.860762596E0,8.343353090E0
2.315281980E0,1.928529501E0,1.892616391E0,7.549516678E0,8.018505154E0
2.317795209E0,1.813607812E0,1.878251195E0,7.243058681E0,7.699279181E0
2.320308438E0,1.717839718E0,1.878251195E0,6.922235489E0,7.375374229E0
2.322821667E0,1.684320927E0,1.878251195E0,6.654085159E0,7.116292141E0
2.325334896E0,1.655590534E0,1.883039594E0,6.400299549E0,6.873911001E0
2.327848125E0,1.631648421E0,1.863885999E0,6.146514416E0,6.626913841E0
2.330361355E0,1.626860023E0,1.883039594E0,5.921459198E0,6.423098215E0
2.332874584E0,1.665167332E0,1.906981707E0,5.739500046E0,6.273055256E0
2.335387813E0,1.722628117E0,1.950077295E0,5.605424881E0,6.179889739E0
2.337901042E0,1.818396211E0,2.041056871E0,5.504868031E0,6.146222414E0
2.340414271E0,1.933317900E0,2.165555477E0,5.423465252E0,6.151530213E0
2.342927448E0,2.148796082E0,2.194285870E0,5.318120480E0,6.141223047E0
2.345440365E0,2.431311846E0,2.175132275E0,5.231929302E0,6.165676113E0
2.347953282E0,2.680308819E0,2.213439465E0,5.121796131E0,6.190005270E0
2.350466198E0,2.890998602E0,2.294842243E0,4.968566895E0,6.189574365E0
2.352979115E0,3.082534790E0,2.366668463E0,4.834491730E0,6.202858263E0
2.355492032E0,3.240551949E0,2.462436438E0,4.762665749E0,6.264802884E0
2.358004948E0,3.374627352E0,2.582146645E0,4.690839767E0,6.329262894E0
2.360517865E0,3.465606928E0,2.735375404E0,4.652532578E0,6.413951151E0
2.363030782E0,3.503914118E0,2.898181200E0,4.595071793E0,6.464638675E0
2.365543698E0,3.494337320E0,3.056198359E0,4.599860191E0,6.535247164E0
2.368056667E0,3.479972124E0,3.209427357E0,4.623802185E0,6.617414645E0
2.370569636E0,3.508702517E0,3.281253338E0,4.695628166E0,6.717629098E0
2.373082605E0,3.508702517E0,3.357867956E0,4.810549736E0,6.835763258E0
2.375595573E0,3.475183725E0,3.477577925E0,4.954201698E0,6.979581980E0
2.378108542E0,3.403357744E0,3.563769341E0,5.131372929E0,7.114371650E0
2.380621511E0,3.365050554E0,3.563769341E0,5.375581264E0,7.274674637E0
2.383134480E0,3.403357744E0,3.511096716E0,5.662885666E0,7.481906051E0
2.385647448E0,3.451241732E0,3.367444754E0,5.954977989E0,7.662409315E0
2.388160417E0,3.484760523E0,3.180696964E0,6.232705593E0,7.817097165E0
2.390673386E0,3.499125719E0,2.993949175E0,6.481702328E0,7.951105428E0
2.393186355E0,3.475183725E0,2.811989784E0,6.773795128E0,8.115940420E0
2.395698855E0,3.436876535E0,2.620453835E0,7.070676327E0,8.286939262E0
2.398211355E0,3.393780947E0,2.443282843E0,7.367557049E0,8.471615963E0
2.400723855E0,3.360262156E0,2.261323452E0,7.664438248E0,8.668826862E0
2.403236355E0,3.350685358E0,2.064998865E0,7.961318970E0,8.881098604E0
2.405748855E0,3.369838953E0,1.887827992E0,8.195950508E0,9.060536067E0
2.408261407E0,3.412934542E0,1.753752708E0,8.421006203E0,9.254032430E0
2.410774011E0,3.494337320E0,1.667561531E0,8.607753754E0,9.438462770E0
2.413286667E0,3.604470730E0,1.610100627E0,8.751405716E0,9.600611193E0
2.415799427E0,3.695450306E0,1.547851443E0,8.837596893E0,9.703366215E0
2.418312292E0,3.800795317E0,1.504755735E0,8.861538887E0,9.758955185E0
2.420825261E0,3.920505285E0,1.480813742E0,8.885480881E0,9.824201826E0
2.423338334E0,4.021061897E0,1.485602140E0,8.918999672E0,9.895681263E0
2.425851511E0,4.092887878E0,1.485602140E0,8.952518463E0,9.955216308E0
2.428364792E0,4.145560265E0,1.504755735E0,9.000402451E0,1.002283413E1
2.430878177E0,4.203021049E0,1.567005038E0,9.081805229E0,1.012916961E1
2.433391667E0,4.231751442E0,1.605312228E0,9.129689217E0,1.018999376E1
2.435905209E0,4.226963043E0,1.653196216E0,9.144054413E0,1.020852611E1
2.438418802E0,4.241328239E0,1.705868721E0,9.120112419E0,1.020173043E1
2.440932396E0,4.250905037E0,1.720233917E0,9.115324020E0,1.020384880E1
2.443445990E0,4.250905037E0,1.739387512E0,9.120112419E0,1.021137175E1
2.445959584E0,4.241328239E0,1.748964310E0,9.100958824E0,1.019191802E1
2.448473125E0,4.207809448E0,1.744175911E0,9.077016830E0,1.015578872E1
2.450986250E0,4.159925461E0,1.729810715E0,9.029132843E0,1.009071181E1
2.453499271E0,4.097676277E0,1.720233917E0,8.981248856E0,1.002062805E1
2.456012292E0,4.006696701E0,1.710657120E0,8.933364868E0,9.939063040E0
2.458525313E0,3.901351690E0,1.686715126E0,8.923788071E0,9.884308092E0
2.461038334E0,3.781641483E0,1.686715126E0,8.933364868E0,9.846361160E0
2.463551407E0,3.690661907E0,1.643619418E0,8.990825653E0,9.856846150E0
2.466064532E0,3.623624325E0,1.595735431E0,9.144054413E0,9.964474693E0
2.468577709E0,3.556586742E0,1.562216640E0,9.316437721E0,1.009385169E1
2.471090938E0,3.508702517E0,1.514332533E0,9.479243279E0,1.022057970E1
2.473604219E0,3.456030130E0,1.447294950E0,9.608530045E0,1.031322726E1
2.476117552E0,3.403357744E0,1.408987641E0,9.747393608E0,1.042016182E1
2.478630938E0,3.345896959E0,1.341950059E0,9.881468773E0,1.051852088E1
2.481144375E0,3.307589531E0,1.270123959E0,1.001075554E1,1.061925562E1
2.483657865E0,3.259705544E0,1.179144382E0,1.016398430E1,1.073883786E1
2.486171355E0,3.226186752E0,1.078587890E0,1.027411842E1,1.082262178E1
2.488684844E0,3.168725967E0,1.011550188E0,1.039382839E1,1.091309886E1
2.491198334E0,3.120841980E0,9.636662006E-1,1.048959637E1,1.098635240E1
2.493711615E0,3.082534790E0,9.588778019E-1,1.053269196E1,1.101630915E1
2.496224271E0,3.087323189E0,9.540894032E-1,1.057099915E1,1.105386240E1
2.498736927E0,3.096899986E0,9.684545994E-1,1.056142235E1,1.104863502E1
2.501249584E0,3.106476784E0,1.006761789E0,1.050396156E1,1.099986254E1
2.503762240E0,3.130418777E0,1.011550188E0,1.038425159E1,1.089290763E1
2.506274948E0,3.139995575E0,1.040280581E0,1.022623444E1,1.074791266E1
2.508787709E0,3.106476784E0,1.073799491E0,1.007300472E1,1.059569099E1
2.511300521E0,3.034650564E0,1.097741485E0,9.910199165E0,1.042238878E1
2.513813438E0,2.938882589E0,1.083376288E0,9.728240013E0,1.022004838E1
2.516326459E0,2.857479811E0,1.078587890E0,9.522338867E0,1.000017401E1
2.518839584E0,2.776076794E0,1.073799491E0,9.340379715E0,9.803180144E0
2.521352813E0,2.661155224E0,1.078587890E0,9.144054413E0,9.584301230E0
2.523866094E0,2.565387011E0,1.073799491E0,8.938153267E0,9.360814050E0
2.526379427E0,2.507926226E0,1.025915384E0,8.607753754E0,9.024168716E0
2.528892813E0,2.498349428E0,9.828197956E-1,8.301296234E0,8.724632014E0
2.531406198E0,2.517503023E0,9.876081944E-1,8.167220116E0,8.603294476E0
2.533919584E0,2.479195833E0,1.001973391E0,7.784148216E0,8.230633396E0
2.536432969E0,2.440888643E0,1.006761789E0,7.626131058E0,8.070277664E0
2.538946250E0,2.469619036E0,9.923965931E-1,7.583035469E0,8.036559967E0
2.541459271E0,2.440888643E0,1.083376288E0,7.578247070E0,8.035015259E0
2.543972292E0,2.369062662E0,1.207874775E0,7.616554260E0,8.067423267E0
2.546485313E0,2.345120668E0,1.303642869E0,7.683591843E0,8.138590743E0
2.548998334E0,2.345120668E0,1.361103654E0,7.769783020E0,8.229320888E0
2.551511355E0,2.369062662E0,1.394622445E0,7.865550995E0,8.332125906E0
2.554024375E0,2.421735048E0,1.432929754E0,7.985261440E0,8.466551163E0
2.556537396E0,2.498349428E0,1.480813742E0,8.128912926E0,8.632136732E0
2.559050417E0,2.584540844E0,1.490390539E0,8.253412247E0,8.776099877E0
2.561563438E0,2.709039211E0,1.490390539E0,8.392275810E0,8.943738071E0
2.564076459E0,2.833537817E0,1.504755735E0,8.569446564E0,9.150335556E0
2.566589480E0,2.924517393E0,1.528697729E0,8.722675323E0,9.326027210E0
2.569102500E0,2.981978178E0,1.538274646E0,8.684368134E0,9.310033975E0
2.571615521E0,3.005920172E0,1.552639842E0,8.617330551E0,9.257679644E0
2.574128542E0,3.034650564E0,1.586158633E0,8.636484146E0,9.290525371E0
2.576641563E0,3.029862165E0,1.643619418E0,8.727463722E0,9.383505345E0
2.579154584E0,2.981978178E0,1.701080322E0,8.770559311E0,9.418523172E0
2.581667605E0,2.929305792E0,1.777694821E0,8.784924507E0,9.429524373E0
2.584180625E0,2.871845007E0,1.825578809E0,8.799289703E0,9.434390866E0
2.586693177E0,2.881421804E0,1.835155606E0,8.808866501E0,9.448095932E0
2.589205573E0,2.910152197E0,1.835155606E0,8.851962090E0,9.497052950E0
2.591717865E0,2.924517393E0,1.806425214E0,8.866327286E0,9.509349798E0
2.594230157E0,2.929305792E0,1.782483220E0,8.784924507E0,9.430428275E0
2.596742448E0,2.962824583E0,1.739387512E0,8.818443298E0,9.464076322E0
2.599254792E0,2.962824583E0,1.701080322E0,8.885480881E0,9.519652003E0
2.601767240E0,2.958036184E0,1.643619418E0,8.899846077E0,9.521487439E0
2.604279792E0,2.919728994E0,1.624465823E0,8.933364868E0,9.537752066E0
2.606792500E0,2.867056608E0,1.614889026E0,8.938153267E0,9.524624086E0
2.609305365E0,2.809595585E0,1.629254222E0,8.942941666E0,9.514436521E0
2.611818386E0,2.776076794E0,1.672349930E0,8.947730064E0,9.516576588E0
2.614331563E0,2.766499996E0,1.701080322E0,8.947730064E0,9.518879650E0
2.616844948E0,2.780865192E0,1.729810715E0,8.899846077E0,9.483286167E0
2.619358542E0,2.823961020E0,1.753752708E0,8.875904083E0,9.477978566E0
2.621872292E0,2.876633406E0,1.739387512E0,8.799289703E0,9.419553490E0
2.624386146E0,2.943670988E0,1.720233917E0,8.775347710E0,9.414410818E0
2.626900105E0,3.034650564E0,1.720233917E0,8.698733330E0,9.372100635E0
2.629414115E0,3.120841980E0,1.701080322E0,8.602965355E0,9.308294249E0
2.631928177E0,3.187879562E0,1.648407817E0,8.502408981E0,9.228801814E0
2.634442240E0,3.264493942E0,1.547851443E0,8.382699013E0,9.128110841E0
2.636956302E0,3.331531763E0,1.418564558E0,8.258200645E0,9.017167360E0
2.639469948E0,3.360262156E0,1.356315255E0,8.157643318E0,8.926258865E0
2.641983542E0,3.360262156E0,1.404199243E0,8.076240540E0,8.859390415E0
2.644496980E0,3.503914118E0,1.231816769E0,7.851185799E0,8.685384571E0
2.647010417E0,3.738545895E0,9.014169574E-1,7.650073051E0,8.562294998E0
2.649523802E0,3.767276287E0,8.200140595E-1,7.530363083E0,8.459974104E0
2.652037188E0,3.551798105E0,9.540894032E-1,7.458536625E0,8.315968071E0
2.654550573E0,3.336320162E0,1.188721180E0,7.362768650E0,8.170339801E0
2.657063907E0,3.240551949E0,1.337161660E0,7.219116688E0,8.025261615E0
2.659577032E0,3.173514366E0,1.471236944E0,7.032369137E0,7.854294829E0
2.662090105E0,3.092111588E0,1.590947032E0,6.859986305E0,7.691012849E0
2.664603125E0,3.010708570E0,1.705868721E0,6.697180748E0,7.538340942E0
2.667116146E0,2.962824583E0,1.787271619E0,6.567893982E0,7.423604294E0
2.669629167E0,2.929305792E0,1.878251195E0,6.448183537E0,7.327191201E0
2.672142188E0,2.890998602E0,2.041056871E0,6.371569157E0,7.288393485E0
2.674655052E0,2.819172382E0,2.208651066E0,6.304531574E0,7.250723469E0
2.677167917E0,2.809595585E0,2.290053844E0,6.194398403E0,7.176959352E0
2.679680782E0,2.895787001E0,2.290053844E0,6.079476833E0,7.112662478E0
2.682193646E0,2.962824583E0,2.194285870E0,5.983708382E0,7.028370080E0
2.684706511E0,3.092111588E0,2.184709072E0,5.868786812E0,6.984036544E0
2.687219427E0,3.144783974E0,2.084152699E0,5.820902824E0,6.936589104E0
2.689732396E0,3.274070740E0,2.017114878E0,5.811326027E0,6.968486337E0
2.692245417E0,3.475183725E0,2.026691675E0,5.773018837E0,7.036485455E0
2.694758490E0,3.604470730E0,2.026691675E0,5.806537628E0,7.128503883E0
2.697271667E0,3.748122692E0,2.208651066E0,5.787384033E0,7.240191793E0
2.699784896E0,3.906140089E0,2.419340849E0,5.777807236E0,7.382018490E0
2.702298177E0,3.963600874E0,2.495955229E0,5.859210014E0,7.501350971E0
2.704811511E0,4.030638695E0,2.505532026E0,5.964554787E0,7.622312827E0
2.707324896E0,4.049792290E0,2.491166830E0,6.089053631E0,7.725496999E0
2.709838334E0,3.977966070E0,2.419340849E0,6.290166378E0,7.825830132E0
2.712351823E0,3.891774893E0,2.309207439E0,6.515221596E0,7.932620201E0
2.714865365E0,3.858256102E0,2.122459888E0,6.792948723E0,8.095376982E0
2.717378959E0,3.738545895E0,1.916558504E0,6.979696274E0,8.146538037E0
2.719892605E0,3.614047527E0,1.763329506E0,7.018003941E0,8.088451631E0
2.722406302E0,3.537432909E0,1.567005038E0,7.267000675E0,8.232753804E0
2.724920052E0,3.460818529E0,1.452083349E0,7.468113422E0,8.358141482E0
2.727433855E0,3.317166567E0,1.375468850E0,7.630919456E0,8.433649290E0
2.729947709E0,3.125630379E0,1.308431268E0,7.750629425E0,8.458948760E0
2.732461615E0,2.967612982E0,1.270123959E0,7.865550995E0,8.502166438E0
2.734975521E0,2.910152197E0,1.255758762E0,8.023568153E0,8.626909168E0
2.737489427E0,2.867056608E0,1.212663174E0,8.114547729E0,8.691170831E0
2.740003334E0,2.886210203E0,1.198297977E0,8.186373711E0,8.762581920E0
2.742517240E0,2.919728994E0,1.179144382E0,8.267777443E0,8.847109286E0
2.745031146E0,2.929305792E0,1.188721180E0,8.358757019E0,8.936593835E0
2.747545052E0,3.001131773E0,1.183932781E0,8.488043785E0,9.080494262E0
2.750058959E0,3.077746391E0,1.198297977E0,8.598176956E0,9.210705069E0
2.752572761E0,3.197456360E0,1.198297977E0,8.832808495E0,9.469854863E0
2.755085730E0,3.283647537E0,1.227028370E0,8.938153267E0,9.600964722E0
2.757598646E0,3.283647537E0,1.294066072E0,8.952518463E0,9.623125011E0
2.760111511E0,3.307589531E0,1.346738458E0,8.957306862E0,9.642987047E0
2.762624063E0,3.355473757E0,1.389834046E0,8.990825653E0,9.696689576E0
2.765136615E0,3.479972124E0,1.447294950E0,9.077016830E0,9.828382532E0
2.767649167E0,3.561375141E0,1.504755735E0,9.148842812E0,9.932220674E0
2.770161771E0,3.642777920E0,1.557428241E0,9.158419609E0,9.978580231E0
2.772674427E0,3.700238705E0,1.643619418E0,9.167996407E0,1.002224573E1
2.775187188E0,3.767276287E0,1.686715126E0,9.187150002E0,1.007179744E1
2.777700052E0,3.805583715E0,1.725022316E0,9.196727753E0,1.010138460E1
2.780213073E0,3.886986494E0,1.758541107E0,9.220669746E0,1.015981700E1
2.782726250E0,4.016273499E0,1.772906303E0,9.254188538E0,1.024273670E1
2.785239584E0,3.963600874E0,1.825578809E0,9.225458145E0,1.020548616E1
2.787753021E0,3.796006680E0,1.902193308E0,9.191938400E0,1.012520309E1
2.790266511E0,3.920505285E0,1.883039594E0,9.163208008E0,1.014300650E1
2.792780052E0,3.920505285E0,1.911770105E0,9.134477615E0,1.012244575E1
2.795293594E0,4.045003891E0,1.921346903E0,9.100958824E0,1.014303120E1
2.797807084E0,4.203021049E0,1.935712099E0,9.091382027E0,1.020125455E1
2.800319844E0,4.370615005E0,1.911770105E0,9.067440033E0,1.024576055E1
2.802832605E0,4.562151432E0,1.883039594E0,9.067440033E0,1.032363950E1
2.805345365E0,4.739322186E0,1.825578809E0,9.053074837E0,1.038036978E1
2.807858125E0,4.945223808E0,1.763329506E0,9.072228432E0,1.048188429E1
2.810370886E0,5.213374138E0,1.677138329E0,9.129689217E0,1.064628048E1
2.812883646E0,5.500678539E0,1.523909330E0,9.139266014E0,1.077524697E1
2.815396459E0,5.519832134E0,1.466448545E0,9.091382027E0,1.073649129E1
2.817909323E0,5.376179695E0,1.432929754E0,9.057863235E0,1.063021553E1
2.820422240E0,5.285200119E0,1.413776159E0,9.000402451E0,1.053277492E1
2.822935209E0,5.361814499E0,1.341950059E0,8.938153267E0,1.050906601E1
2.825448230E0,5.529408932E0,1.227028370E0,8.899846077E0,1.054927590E1
2.827961302E0,5.730521679E0,1.054645896E0,8.818443298E0,1.056958367E1
2.830474375E0,5.946000099E0,8.678981066E-1,8.708310127E0,1.058030385E1
2.832987500E0,6.137536049E0,7.050924301E-1,8.612542152E0,1.059916914E1
2.835500677E0,6.295553207E0,5.518634915E-1,8.521562576E0,1.060922109E1
2.838013907E0,6.410475254E0,4.034229815E-1,8.454524994E0,1.061771802E1
2.840527188E0,6.491878033E0,2.932897210E-1,8.353968620E0,1.058391662E1
2.843040573E0,6.439205647E0,2.358288616E-1,8.243835449E0,1.046325989E1
2.845554063E0,6.582857609E0,1.161187813E-1,8.128912926E0,1.046072288E1
2.848067657E0,6.807912350E0,-2.274491638E-2,8.004414558E0,1.050803694E1
2.850581355E0,7.023390770E0,-1.951274425E-1,7.860762596E0,1.054313432E1
2.853095157E0,7.291541100E0,-3.148375154E-1,7.760206223E0,1.065300403E1
2.855609063E0,7.588422298E0,-4.345476031E-1,7.712322235E0,1.082833777E1
2.858123021E0,7.861361504E0,-5.303156972E-1,7.726687431E0,1.103557602E1
2.860637032E0,8.158242226E0,-6.021417379E-1,7.784148216E0,1.129214126E1
2.863151042E0,8.459911346E0,-6.404489279E-1,7.942165375E0,1.162145712E1
2.865665052E0,8.761581421E0,-6.404489279E-1,8.104970932E0,1.195265818E1
2.868178386E0,9.053673744E0,-6.500257850E-1,8.296507835E0,1.229729987E1
2.870691719E0,9.436745644E0,-6.404489279E-1,8.516774178E0,1.272783507E1
2.873205052E0,9.862914085E0,-6.356605291E-1,8.727463722E0,1.318520996E1
2.875718386E0,9.877279282E0,-5.734112859E-1,8.914211273E0,1.331737997E1
2.878231719E0,9.671378136E0,-4.680664241E-1,9.072228432E0,1.326875917E1
2.880745052E0,9.522936821E0,-3.579331636E-1,9.249400139E0,1.328028030E1
2.883258386E0,9.513360023E0,-3.100491166E-1,9.407417297E0,1.338281172E1
2.885771719E0,9.575610161E0,-2.956839204E-1,9.498396873E0,1.349071096E1
2.888285052E0,9.585186958E0,-2.861070931E-1,9.498396873E0,1.349730378E1
2.890798386E0,9.556455612E0,-2.334346622E-1,9.507973671E0,1.348265178E1
2.893311719E0,9.498994827E0,-1.472434103E-1,9.517550468E0,1.344754068E1
2.895825105E0,9.403226852E0,-9.457096457E-2,9.522338867E0,1.338299505E1
2.898338542E0,9.245209694E0,-3.711012751E-2,9.527127266E0,1.327559541E1
2.900852032E0,9.106346130E0,-3.591302549E-3,9.527127266E0,1.317921495E1
2.903365625E0,8.957905769E0,-1.795651205E-2,9.507973671E0,1.306315282E1
2.905879271E0,8.819042206E0,-3.711012751E-2,9.517550468E0,1.297538630E1
2.908392969E0,8.699332237E0,-4.668693244E-2,9.507973671E0,1.288728538E1
2.910906719E0,8.646659851E0,-2.274491638E-2,9.531915665E0,1.286944677E1
2.913420521E0,8.713697433E0,3.471592441E-2,9.565434456E0,1.293936878E1
2.915934375E0,8.876502991E0,1.113303825E-1,9.575011253E0,1.305701115E1
2.918448282E0,9.087192535E0,1.592144072E-1,9.570222855E0,1.319816589E1
2.920962188E0,9.254786491E0,2.118868530E-1,9.498396873E0,1.326331453E1
2.923476094E0,9.388861656E0,2.501940727E-1,9.407417297E0,1.329333745E1
2.925990000E0,9.470264435E0,2.885012925E-1,9.263765335E0,1.325090524E1
2.928503855E0,9.522936821E0,2.932897210E-1,9.167996407E0,1.322212172E1
2.931017240E0,9.551667213E0,2.837128937E-1,9.096170425E0,1.319299647E1
2.933530625E0,9.566033363E0,2.693476975E-1,9.014767647E0,1.314715095E1
2.936043907E0,9.556455612E0,2.645592988E-1,8.909422874E0,1.306803931E1
2.938556771E0,9.527725220E0,2.358288616E-1,8.799289703E0,1.297153277E1
2.941069636E0,9.460687637E0,1.783680320E-1,8.684368134E0,1.284346821E1
2.943582500E0,9.364919662E0,1.209071875E-1,8.497620583E0,1.264618102E1
2.946095417E0,9.235632896E0,6.823474914E-2,8.330026627E0,1.243748023E1
2.948608386E0,9.077615738E0,5.985504016E-3,8.162431717E0,1.220772030E1
2.951121407E0,8.905233383E0,-5.147533491E-2,7.980473042E0,1.195800072E1
2.953634480E0,8.704120636E0,-1.280897856E-1,7.788936615E0,1.168099553E1
2.956147605E0,8.512583733E0,-1.951274425E-1,7.616554260E0,1.142427483E1
2.958660782E0,8.335412979E0,-2.861070931E-1,7.468113422E0,1.119525278E1
2.961174011E0,8.129511833E0,-3.770867586E-1,7.343615055E0,1.096174435E1
2.963687292E0,7.890091896E0,-4.584896266E-1,7.252635479E0,1.072681147E1
2.966200677E0,7.660248280E0,-5.351040959E-1,7.185597897E0,1.051658487E1
2.968714167E0,7.420828342E0,-6.117185354E-1,7.108983517E0,1.029468501E1
2.971227761E0,7.195773125E0,-6.691793799E-1,7.085041523E0,1.012051211E1
2.973741407E0,6.985083580E0,-7.649474144E-1,7.104195118E0,9.992303310E0
2.976255105E0,6.798335552E0,-8.367735147E-1,7.161655903E0,9.909938015E0
2.978768802E0,6.592434406E0,-9.038111567E-1,7.257423878E0,9.846180343E0
2.981282500E0,6.405686855E0,-9.852139950E-1,7.377133846E0,9.819652463E0
2.983796198E0,6.252457619E0,-1.076193690E0,7.520786285E0,9.839392536E0
2.986309792E0,6.113594055E0,-1.157596469E0,7.693168640E0,9.894488647E0
2.988823125E0,6.017826080E0,-1.258152962E0,7.832032204E0,9.956802099E0
2.991336459E0,5.936423302E0,-1.353921056E0,7.966107368E0,1.002661909E1
2.993849792E0,5.874173641E0,-1.464054346E0,8.104970932E0,1.011631973E1
2.996363125E0,5.831078053E0,-1.598129630E0,8.200738907E0,1.018860188E1
2.998876459E0,5.797559261E0,-1.722628117E0,8.296507835E0,1.026699485E1
3.001389792E0,5.783194065E0,-1.861491799E0,8.377910614E0,1.034890678E1
3.003903177E0,5.773617268E0,-2.024297476E0,8.440159798E0,1.042442967E1
3.006416615E0,5.744886875E0,-2.172738075E0,8.444948196E0,1.044230176E1
3.008930157E0,5.711368084E0,-2.292448044E0,8.473678589E0,1.047273948E1
3.011443802E0,5.687426090E0,-2.431311846E0,8.449736595E0,1.047168283E1
3.013957552E0,5.687426090E0,-2.531868219E0,8.430583000E0,1.048007166E1
3.016471355E0,5.706579685E0,-2.632424831E0,8.387487411E0,1.048068019E1
3.018985209E0,5.706579685E0,-2.732981205E0,8.334815025E0,1.046438624E1
3.021499063E0,5.735310078E0,-2.833537817E0,8.258200645E0,1.044608042E1
3.024012917E0,5.768828869E0,-2.924517393E0,8.195950508E0,1.044058395E1
3.026526355E0,5.802347660E0,-3.039438963E0,8.128912926E0,1.043957149E1
3.029039740E0,5.826289654E0,-3.154360771E0,8.028356552E0,1.040913791E1
3.031553125E0,5.816712856E0,-3.259705544E0,7.966107368E0,1.038839233E1
3.034066511E0,5.797559261E0,-3.331531763E0,7.903858185E0,1.035286296E1
3.036579896E0,5.802347660E0,-3.427299738E0,7.832032204E0,1.033219968E1
3.039093073E0,5.850231647E0,-3.479972124E0,7.774571419E0,1.033341072E1
3.041606146E0,5.898116112E0,-3.513490915E0,7.726687431E0,1.033605779E1
3.044119219E0,5.926846504E0,-3.547009706E0,7.678803444E0,1.032825298E1
3.046632292E0,5.989095688E0,-3.580528736E0,7.635707855E0,1.034376564E1
3.049145365E0,6.051344872E0,-3.609259129E0,7.616554260E0,1.037580961E1
3.051658438E0,6.113594055E0,-3.633201122E0,7.616554260E0,1.042056052E1
3.054171563E0,6.175843239E0,-3.633201122E0,7.611765862E0,1.045371559E1
3.056684740E0,6.233304024E0,-3.633201122E0,7.630919456E0,1.050167421E1
3.059197969E0,6.271611214E0,-3.618835926E0,7.645284653E0,1.052993153E1
3.061711250E0,6.338648796E0,-3.590105534E0,7.664438248E0,1.057406922E1
3.064224584E0,6.372167587E0,-3.551798105E0,7.626131058E0,1.055356170E1
3.066737969E0,6.386533260E0,-3.479972124E0,7.635707855E0,1.054523814E1
3.069251355E0,6.405686855E0,-3.412934542E0,7.626131058E0,1.052800177E1
3.071764740E0,6.400898457E0,-3.321954966E0,7.587823868E0,1.046814009E1
3.074278125E0,6.362590790E0,-3.250128746E0,7.535151482E0,1.038385315E1
3.076791511E0,6.348225594E0,-3.207033157E0,7.487267494E0,1.032686808E1
3.079304375E0,6.338648796E0,-3.154360771E0,7.415441036E0,1.025266922E1
3.081817240E0,6.309918404E0,-3.144783974E0,7.338826656E0,1.017659635E1
3.084330105E0,6.305130005E0,-3.120841980E0,7.281365871E0,1.012485101E1
3.086842969E0,6.281188011E0,-3.092111588E0,7.190386295E0,1.003574272E1
3.089355834E0,6.281188011E0,-3.087323189E0,7.113771915E0,9.979510918E0
3.091868698E0,6.285976410E0,-3.082534790E0,7.013215542E0,9.909627258E0
3.094381563E0,6.281188011E0,-3.058592558E0,6.922235489E0,9.834920205E0
3.096894427E0,6.247669220E0,-3.068169594E0,6.816890717E0,9.742537369E0
3.099407292E0,6.209362030E0,-3.068169594E0,6.692392349E0,9.631093231E0
3.101920157E0,6.175843239E0,-3.072957993E0,6.563105583E0,9.521473911E0
3.104433073E0,6.137536049E0,-3.072957993E0,6.433818340E0,9.407786031E0
3.106946042E0,6.089652061E0,-3.101688385E0,6.309319973E0,9.301174742E0
3.109459115E0,6.060921669E0,-3.116053581E0,6.199186802E0,9.212734578E0
3.111972292E0,6.041768074E0,-3.178302765E0,6.065111637E0,9.131820689E0
3.114485573E0,6.008249283E0,-3.226186752E0,5.969343185E0,9.063134031E0
3.116998959E0,5.979518890E0,-3.254917145E0,5.859210014E0,8.982175336E0
3.119512448E0,5.965153694E0,-3.307589531E0,5.773018837E0,8.935936078E0
3.122026042E0,5.960365295E0,-3.365050554E0,5.672462463E0,8.889676602E0
3.124539740E0,5.960365295E0,-3.441664934E0,5.591059685E0,8.867410015E0
3.127053490E0,5.955576897E0,-3.484760523E0,5.504868031E0,8.827005387E0
3.129567292E0,5.969942093E0,-3.537432909E0,5.442618847E0,8.819055510E0
3.132081146E0,5.989095688E0,-3.609259129E0,5.380369663E0,8.822947145E0
3.134595000E0,6.032191277E0,-3.676296711E0,5.313332081E0,8.839343126E0
3.137108855E0,6.089652061E0,-3.752911091E0,5.265448093E0,8.882181461E0
3.139622709E0,6.180631638E0,-3.815160513E0,5.222352505E0,8.945871834E0
3.142136563E0,6.305130005E0,-3.896563292E0,5.217564106E0,9.064261970E0
3.144650261E0,6.439205647E0,-3.954024076E0,5.222352505E0,9.185349282E0
3.147163802E0,6.530185223E0,-4.035427094E0,5.203198910E0,9.273686956E0
3.149677188E0,6.640318394E0,-4.102464676E0,5.188833714E0,9.372728530E0
3.152190469E0,6.731297970E0,-4.164713860E0,5.188833714E0,9.464629375E0
3.154703750E0,6.817489147E0,-4.207809448E0,5.207987309E0,9.555467044E0
3.157217032E0,6.908469200E0,-4.250905037E0,5.227140903E0,9.649877841E0
3.159730313E0,7.018602371E0,-4.289212227E0,5.270236492E0,9.769007803E0
3.162243386E0,7.104793549E0,-4.337096214E0,5.346850872E0,9.893296174E0
3.164756459E0,7.200561523E0,-4.346673012E0,5.418676853E0,1.000518422E1
3.167269532E0,7.286752701E0,-4.313154221E0,5.514444828E0,1.010490802E1
3.169782396E0,7.349001884E0,-4.289212227E0,5.581482887E0,1.017635109E1
3.172295261E0,7.368155956E0,-4.241328239E0,5.658097267E0,1.021237740E1
3.174808125E0,7.392097950E0,-4.198232651E0,5.734711647E0,1.025452033E1
3.177320990E0,7.392097950E0,-4.169502258E0,5.792172432E0,1.027507288E1
3.179833855E0,7.401674747E0,-4.140771866E0,5.859210014E0,1.030830358E1
3.182346719E0,7.392097950E0,-4.121618271E0,5.892728806E0,1.031286100E1
3.184859584E0,7.368155956E0,-4.092887878E0,5.921459198E0,1.030073456E1
3.187372448E0,7.344213486E0,-4.073734283E0,5.945401192E0,1.028982886E1
3.189885313E0,7.325059891E0,-4.073734283E0,5.950189590E0,1.027893815E1
3.192398177E0,7.277175903E0,-4.092887878E0,5.940612793E0,1.024694592E1
3.194911042E0,7.210138321E0,-4.107253075E0,5.892728806E0,1.017741987E1
3.197423907E0,7.123947144E0,-4.107253075E0,5.863998413E0,1.009983307E1
3.199936823E0,7.071274757E0,-4.107253075E0,5.811326027E0,1.003214657E1
3.202449792E0,6.989871979E0,-4.088099480E0,5.758653641E0,9.936446014E0
3.204962813E0,6.903680801E0,-4.092887878E0,5.658097267E0,9.819704908E0
3.207475886E0,6.827065945E0,-4.097676277E0,5.586271286E0,9.726572221E0
3.209989011E0,6.740874767E0,-4.088099480E0,5.480926037E0,9.601692570E0
3.212502240E0,6.664260387E0,-4.078522682E0,5.385158062E0,9.489290866E0
3.215015573E0,6.563704014E0,-4.073734283E0,5.303755283E0,9.370557161E0
3.217528959E0,6.467936039E0,-4.049792290E0,5.222352505E0,9.247052497E0
3.220042396E0,6.367379189E0,-4.054580688E0,5.145738125E0,9.135740974E0
3.222555886E0,6.309918404E0,-4.068945885E0,5.049970150E0,9.048402588E0
3.225069427E0,6.285976410E0,-4.088099480E0,4.954201698E0,8.987222666E0
3.227583021E0,6.290764809E0,-4.116829872E0,4.868010521E0,8.956535966E0
3.230096667E0,6.314706802E0,-4.140771866E0,4.772242546E0,8.932850193E0
3.232610365E0,6.348225594E0,-4.179079056E0,4.652532578E0,8.911269793E0
3.235124063E0,6.381744862E0,-4.207809448E0,4.556764603E0,8.899237691E0
3.237637240E0,6.439205647E0,-4.250905037E0,4.413112164E0,8.888707553E0
3.240149948E0,6.496666431E0,-4.270058632E0,4.322132587E0,8.894993285E0
3.242662552E0,6.554127216E0,-4.294000626E0,4.240729809E0,8.909478899E0
3.245175157E0,6.630741596E0,-4.308365822E0,4.188057423E0,8.948104556E0
3.247687709E0,6.692990780E0,-4.298789024E0,4.106654644E0,8.952112880E0
3.250200261E0,6.788758755E0,-4.274847031E0,4.044404984E0,8.984362762E0
3.252712813E0,6.870162010E0,-4.250905037E0,3.977367640E0,9.004930484E0
3.255225365E0,6.956353188E0,-4.241328239E0,3.915118217E0,9.039240320E0
3.257737969E0,7.023390770E0,-4.193444252E0,3.828927040E0,9.031814595E0
3.260250625E0,7.090428352E0,-4.164713860E0,3.761889458E0,9.042722380E0
3.262763386E0,7.152677536E0,-4.121618271E0,3.675698042E0,9.036552949E0
3.265276250E0,7.190984726E0,-4.059369087E0,3.599083662E0,9.007893312E0
3.267789219E0,7.229291916E0,-4.021061897E0,3.532046080E0,8.994829064E0
3.270302344E0,7.277175903E0,-3.992331266E0,3.479373693E0,9.000113297E0
3.272815573E0,7.291541100E0,-3.944447279E0,3.407547474E0,8.963069548E0
3.275328907E0,7.296329498E0,-3.886986494E0,3.354875088E0,8.921898621E0
3.277842344E0,7.296329498E0,-3.829525709E0,3.268683910E0,8.864873705E0
3.280355886E0,7.277175903E0,-3.757699490E0,3.201646328E0,8.793641668E0
3.282869532E0,7.243657112E0,-3.671508312E0,3.158550501E0,8.713609063E0
3.285383230E0,7.200561523E0,-3.590105534E0,3.129820108E0,8.633233340E0
3.287896980E0,7.176619530E0,-3.551798105E0,3.101089716E0,8.586960759E0
3.290410730E0,7.167042732E0,-3.537432909E0,3.053205729E0,8.555816637E0
3.292924480E0,7.176619530E0,-3.542221308E0,3.019686937E0,8.553929440E0
3.295437500E0,7.205349922E0,-3.580528736E0,3.010110140E0,8.590577197E0
3.297950365E0,7.214926720E0,-3.623624325E0,3.019686937E0,8.619995941E0
3.300463230E0,7.234080315E0,-3.690661907E0,3.034052134E0,8.669393039E0
3.302976094E0,7.253233910E0,-3.728969097E0,3.067570925E0,8.713472560E0
3.305488959E0,7.286752701E0,-3.781641483E0,3.096301317E0,8.774090214E0
3.308001823E0,7.329848289E0,-3.819948912E0,3.134608507E0,8.839935301E0
3.310514688E0,7.382521152E0,-3.848679304E0,3.177704096E0,8.911327301E0
3.313027552E0,7.425616741E0,-3.839102507E0,3.239953518E0,8.965254645E0
3.315540417E0,7.454347134E0,-3.867832899E0,3.292625904E0,9.020466056E0
3.318053334E0,7.473500729E0,-3.858256102E0,3.321356297E0,9.042718669E0
3.320566302E0,7.502231121E0,-3.843890905E0,3.345298290E0,9.069178008E0
3.323079323E0,7.545326710E0,-3.848679304E0,3.383605480E0,9.121023714E0
3.325592396E0,7.574057102E0,-3.848679304E0,3.441066504E0,9.166221253E0
3.328105521E0,7.631517887E0,-3.843890905E0,3.465008497E0,9.220729171E0
3.330618698E0,7.674613476E0,-3.839102507E0,3.503315687E0,9.268852187E0
3.333131927E0,7.756016254E0,-3.877409697E0,3.503315687E0,9.352182360E0
3.335645157E0,7.808688641E0,-3.930082083E0,3.498527288E0,9.415989414E0
3.338158386E0,7.875726700E0,-3.968389273E0,3.469796896E0,9.477060460E0
3.340671615E0,7.942764282E0,-4.030638695E0,3.436278105E0,9.546808888E0
3.343184844E0,7.985859871E0,-4.102464676E0,3.412335873E0,9.604593193E0
3.345698073E0,8.043320656E0,-4.159925461E0,3.374028683E0,9.663542651E0
3.348211302E0,8.115146637E0,-4.217386246E0,3.350086689E0,9.739868198E0
3.350724532E0,8.172607422E0,-4.270058632E0,3.340509892E0,9.807340064E0
3.353237761E0,8.220491409E0,-4.337096214E0,3.311779499E0,9.866851881E0
3.355750990E0,8.311470985E0,-4.408922195E0,3.302202702E0,9.971142740E0
3.358264219E0,8.388085365E0,-4.452018261E0,3.287837505E0,1.004939392E1
3.360776771E0,8.445546150E0,-4.509479046E0,3.268683910E0,1.011666672E1
3.363289323E0,8.503006935E0,-4.586093426E0,3.263895512E0,1.019737190E1
3.365801875E0,8.593987465E0,-4.643554211E0,3.268683910E0,1.030065584E1
3.368314427E0,8.661025047E0,-4.686649799E0,3.273472309E0,1.037755569E1
3.370827032E0,8.756793022E0,-4.753687382E0,3.302202702E0,1.049683335E1
3.373339688E0,8.881291389E0,-4.806359768E0,3.316567898E0,1.062911349E1
3.375852448E0,9.029731750E0,-4.868608952E0,3.335721493E0,1.078732805E1
3.378365313E0,9.135076523E0,-4.950012207E0,3.393182278E0,1.093004711E1
3.380878282E0,9.230844498E0,-5.002684593E0,3.450643301E0,1.105179997E1
3.383391355E0,9.326612473E0,-5.084087372E0,3.503315687E0,1.118511803E1
3.385904532E0,9.374496460E0,-5.131971359E0,3.575141668E0,1.126942553E1
3.388417813E0,9.412803650E0,-5.160701752E0,3.666121244E0,1.134346332E1
3.390931198E0,9.460687637E0,-5.189432144E0,3.742735863E0,1.142115967E1
3.393444636E0,9.494206429E0,-5.218162537E0,3.814561844E0,1.148564574E1
3.395958125E0,9.546878815E0,-5.227739334E0,3.895964622E0,1.156073934E1
3.398471615E0,9.628282547E0,-5.246892929E0,3.977367640E0,1.166418294E1
3.400985000E0,9.724050522E0,-5.251681328E0,4.063559055E0,1.177496614E1
3.403497865E0,9.838972092E0,-5.261258125E0,4.164115429E0,1.190907495E1
3.406010730E0,9.929951668E0,-5.261258125E0,4.245518208E0,1.201287651E1
3.408523542E0,1.002093124E1,-5.246892929E0,4.336497784E0,1.211421320E1
3.411036355E0,1.013585281E1,-5.246892929E0,4.465784550E0,1.225596301E1
3.413549167E0,1.022204399E1,-5.222950935E0,4.580706596E0,1.235929904E1
3.416061980E0,1.029386997E1,-5.194220543E0,4.686051369E0,1.244599387E1
3.418574792E0,1.038963795E1,-5.170278549E0,4.800972939E0,1.255888921E1
3.421087448E0,1.050934792E1,-5.146336555E0,4.882375717E0,1.267946238E1
3.423600105E0,1.061469364E1,-5.131971359E0,4.978143692E0,1.279807664E1
3.426112761E0,1.072003841E1,-5.146336555E0,5.040393353E0,1.291547787E1
3.428625417E0,1.082538319E1,-5.155913353E0,5.097854137E0,1.302921642E1
3.431138073E0,1.091636276E1,-5.170278549E0,5.179256916E0,1.314242970E1
3.433650730E0,1.103607273E1,-5.189432144E0,5.227140903E0,1.326831223E1
3.436163438E0,1.112226391E1,-5.232527733E0,5.298966885E0,1.338518401E1
3.438676198E0,1.122760868E1,-5.280411720E0,5.356427670E0,1.351418743E1
3.441189011E0,1.131379986E1,-5.366602898E0,5.394734859E0,1.363472252E1
3.443701875E0,1.145266342E1,-5.452794552E0,5.447407246E0,1.380473519E1
3.446214792E0,1.162504673E1,-5.562927723E0,5.509656429E0,1.401585496E1
3.448727761E0,1.179742908E1,-5.740098476E0,5.552752495E0,1.424644250E1
3.451240782E0,1.198896503E1,-5.941211700E0,5.591059685E0,1.450149053E1
3.453753855E0,1.213740540E1,-6.113594055E0,5.605424881E0,1.470079692E1
3.456266980E0,1.227626896E1,-6.285976410E0,5.595848083E0,1.488401138E1
3.458780105E0,1.234809494E1,-6.429628849E0,5.600636482E0,1.500608892E1
3.461293021E0,1.240076733E1,-6.549338818E0,5.591059685E0,1.509744408E1
3.463805521E0,1.242949772E1,-6.649895191E0,5.571906090E0,1.515782495E1
3.466318021E0,1.245822811E1,-6.692990780E0,5.547964096E0,1.519155946E1
3.468830521E0,1.243907452E1,-6.697779179E0,5.519233704E0,1.516749028E1
3.471343021E0,1.242470932E1,-6.683413982E0,5.452195644E0,1.512507393E1
3.473855417E0,1.240555573E1,-6.659471989E0,5.404311657E0,1.508154384E1
3.476367657E0,1.235767174E1,-6.606799603E0,5.385158062E0,1.501205446E1
3.478879896E0,1.230978775E1,-6.534973621E0,5.346850872E0,1.492734300E1
3.481392136E0,1.226669216E1,-6.443994045E0,5.318120480E0,1.484180586E1
3.483904375E0,1.221401978E1,-6.343437195E0,5.303755283E0,1.474962015E1
3.486416615E0,1.217571259E1,-6.247669220E0,5.294178486E0,1.467343428E1
3.488928855E0,1.215177059E1,-6.147112846E0,5.303755283E0,1.461445671E1
3.491441094E0,1.216134739E1,-6.032191277E0,5.318120480E0,1.457971561E1
3.493953334E0,1.218050098E1,-5.917269707E0,5.351639271E0,1.456086288E1
3.496465573E0,1.221880817E1,-5.802347660E0,5.356427670E0,1.454846483E1
3.498977865E0,1.229542255E1,-5.701791286E0,5.380369663E0,1.458205121E1
3.501490209E0,1.231936455E1,-5.586869717E0,5.389946461E0,1.456129730E1
3.504002657E0,1.234809494E1,-5.467159748E0,5.399523258E0,1.454373184E1
3.506515209E0,1.236724854E1,-5.380968094E0,5.418676853E0,1.453498238E1
3.509027917E0,1.235767174E1,-5.285200119E0,5.409100056E0,1.448805558E1
3.511540782E0,1.235288334E1,-5.208585739E0,5.380369663E0,1.444546537E1
3.514053802E0,1.232894135E1,-5.127182961E0,5.327697277E0,1.437620110E1
3.516566980E0,1.229542255E1,-5.026626587E0,5.298966885E0,1.430116921E1
3.519080313E0,1.222838497E1,-4.945223808E0,5.265448093E0,1.420259065E1
3.521593802E0,1.214698219E1,-4.863820553E0,5.212775707E0,1.408470651E1
3.524107396E0,1.204642582E1,-4.768052578E0,5.136161327E0,1.393667297E1
3.526621094E0,1.192671585E1,-4.672284603E0,5.073912144E0,1.377756796E1
3.529134896E0,1.177348709E1,-4.576516628E0,4.997297287E0,1.358427337E1
3.531648802E0,1.163462353E1,-4.471171856E0,4.920682907E0,1.340033442E1
3.534162813E0,1.151491261E1,-4.337096214E0,4.858433723E0,1.322905870E1
3.536676875E0,1.138083744E1,-4.226963043E0,4.743512154E0,1.303424662E1
3.539190938E0,1.122760868E1,-4.088099480E0,4.657320976E0,1.282428917E1
3.541703698E0,1.108874512E1,-3.958812475E0,4.580706596E0,1.263389637E1
3.544216459E0,1.095466995E1,-3.848679304E0,4.494514942E0,1.245061407E1
3.546729115E0,1.082538319E1,-3.733757496E0,4.417900562E0,1.227386294E1
3.549241719E0,1.071525002E1,-3.609259129E0,4.365228176E0,1.212017126E1
3.551754323E0,1.065300083E1,-3.518279314E0,4.312555790E0,1.201927009E1
3.554266771E0,1.059554005E1,-3.432088137E0,4.269460201E0,1.192782412E1
3.556779219E0,1.057638645E1,-3.379415751E0,4.197634220E0,1.187015308E1
3.559291719E0,1.054286766E1,-3.326743364E0,4.140173435E0,1.180509703E1
3.561804271E0,1.051892471E1,-3.331531763E0,4.087501049E0,1.176667098E1
3.564316927E0,1.053807831E1,-3.326743364E0,4.053982258E0,1.177085757E1
3.566829688E0,1.059554005E1,-3.365050554E0,4.030039787E0,1.182498435E1
3.569342552E0,1.069130802E1,-3.432088137E0,4.001309395E0,1.192030927E1
3.571855573E0,1.076313400E1,-3.503914118E0,3.982156038E0,1.199916807E1
3.574368750E0,1.083974838E1,-3.594893932E0,3.953425646E0,1.208523817E1
3.576882084E0,1.089242077E1,-3.700238705E0,3.953425646E0,1.216413462E1
3.579395521E0,1.092593956E1,-3.781641483E0,3.939060450E0,1.221446539E1
3.581909063E0,1.095466995E1,-3.853467703E0,3.943848848E0,1.226409193E1
3.584422709E0,1.097861195E1,-3.891774893E0,3.939060450E0,1.229601681E1
3.586936407E0,1.100255394E1,-3.934870481E0,3.924695253E0,1.232650120E1
3.589450157E0,1.098818874E1,-3.997119665E0,3.910329819E0,1.232914988E1
3.591963907E0,1.098818874E1,-4.025850296E0,3.924695253E0,1.234305454E1
3.594477292E0,1.098340034E1,-4.049792290E0,3.915118217E0,1.234358341E1
3.596990000E0,1.099297714E1,-4.116829872E0,3.924695253E0,1.237728029E1
3.599502136E0,1.100255394E1,-4.169502258E0,3.958214045E0,1.241404047E1
3.602014011E0,1.098818874E1,-4.217386246E0,3.967790842E0,1.242054760E1
3.604525886E0,1.096424675E1,-4.294000626E0,3.953425646E0,1.242105964E1
3.607037761E0,1.093072796E1,-4.356249809E0,3.948637247E0,1.241166638E1
3.609549688E0,1.087326717E1,-4.413711071E0,3.924695253E0,1.237384408E1
3.612061719E0,1.079665279E1,-4.485537052E0,3.891176224E0,1.232189136E1
3.614573855E0,1.071525002E1,-4.519055843E0,3.857657433E0,1.225234547E1
3.617086094E0,1.060990524E1,-4.562151432E0,3.809773445E0,1.216131936E1
3.619598490E0,1.048540592E1,-4.605247021E0,3.747524261E0,1.204972927E1
3.622111042E0,1.035611916E1,-4.614823818E0,3.694851875E0,1.192466910E1
3.624623750E0,1.023162079E1,-4.643554211E0,3.656544447E0,1.181604743E1
3.627136615E0,1.009275723E1,-4.672284603E0,3.608660460E0,1.169257979E1
3.629649636E0,9.958682060E0,-4.686649799E0,3.541622877E0,1.156214199E1
3.632162761E0,9.834183693E0,-4.696226597E0,3.527257681E0,1.145457375E1
3.634675990E0,9.714473724E0,-4.724956989E0,3.527257681E0,1.136387984E1
3.637189271E0,9.589975357E0,-4.715380192E0,3.536834478E0,1.125662631E1
3.639702552E0,9.479841232E0,-4.720168591E0,3.522469282E0,1.116042881E1
3.642215834E0,9.364919662E0,-4.748898983E0,3.532046080E0,1.107831717E1
3.644729115E0,9.264363289E0,-4.763264179E0,3.555988073E0,1.100736862E1
3.647242032E0,9.187748909E0,-4.753687382E0,3.603872061E0,1.095445880E1
3.649754948E0,9.125499725E0,-4.763264179E0,3.642179251E0,1.091919871E1
3.652267865E0,9.058462143E0,-4.772840977E0,3.656544447E0,1.087226125E1
3.654780782E0,9.005789757E0,-4.782417774E0,3.699640274E0,1.084726265E1
3.657293698E0,8.948328972E0,-4.796782970E0,3.733159065E0,1.081749485E1
3.659806615E0,8.914810181E0,-4.796782970E0,3.766677856E0,1.080142720E1
3.662319532E0,8.866926193E0,-4.791994572E0,3.833715439E0,1.078345799E1
3.664832448E0,8.862137794E0,-4.796782970E0,3.891176224E0,1.080221577E1
3.667345365E0,8.862137794E0,-4.772840977E0,3.915118217E0,1.080026148E1
3.669858282E0,8.862137794E0,-4.748898983E0,3.963002443E0,1.080716967E1
3.672371198E0,8.890868187E0,-4.734533787E0,4.010886192E0,1.084207339E1
3.674884115E0,8.938752174E0,-4.720168591E0,4.049193859E0,1.088931829E1
3.677397032E0,8.977059364E0,-4.701014996E0,4.082712650E0,1.092500249E1
3.679909948E0,9.034520149E0,-4.701014996E0,4.116231441E0,1.098478300E1
3.682422917E0,9.072827339E0,-4.724956989E0,4.140173435E0,1.103550862E1
3.684935938E0,9.111134529E0,-4.729745388E0,4.168903828E0,1.107984761E1
3.687449011E0,9.125499725E0,-4.748898983E0,4.173692226E0,1.110164373E1
3.689962084E0,9.135076523E0,-4.753687382E0,4.154538631E0,1.110438463E1
3.692475157E0,9.144653320E0,-4.753687382E0,4.144961834E0,1.110868744E1
3.694988230E0,9.139864922E0,-4.748898983E0,4.121019840E0,1.109378100E1
3.697501302E0,9.159018517E0,-4.753687382E0,4.087501049E0,1.109922649E1
3.700014375E0,9.163806915E0,-4.763264179E0,4.044404984E0,1.109149469E1
3.702527344E0,9.125499725E0,-4.744110584E0,3.996521235E0,1.103419741E1
3.705040261E0,9.087192535E0,-4.720168591E0,3.948637247E0,1.097491667E1
3.707553021E0,9.044096947E0,-4.710591793E0,3.900753021E0,1.091793198E1
3.710065782E0,8.962694168E0,-4.686649799E0,3.848080635E0,1.082138150E1
3.712578542E0,8.876502991E0,-4.662707806E0,3.795408249E0,1.072092688E1
3.715091302E0,8.809465408E0,-4.629189014E0,3.737947464E0,1.063053728E1
3.717604115E0,8.737639427E0,-4.605247021E0,3.694851875E0,1.054545273E1
3.720116980E0,8.661025047E0,-4.600458622E0,3.613448858E0,1.045153515E1
3.722629896E0,8.579621315E0,-4.590881824E0,3.570353270E0,1.036501425E1
3.725142865E0,8.488641739E0,-4.595670223E0,3.522469282E0,1.027545684E1
3.727655938E0,8.407238960E0,-4.614823818E0,3.445854902E0,1.019078907E1
3.730169115E0,8.316259384E0,-4.600458622E0,3.393182278E0,1.009148530E1
3.732682396E0,8.234856606E0,-4.614823818E0,3.345298290E0,1.001501287E1
3.735195730E0,8.148665428E0,-4.633977413E0,3.302202702E0,9.938764390E0
3.737709115E0,8.038532257E0,-4.667496204E0,3.244741917E0,9.845398508E0
3.740222552E0,7.947552681E0,-4.681861401E0,3.187281132E0,9.759210050E0
3.742736042E0,7.846996307E0,-4.705803394E0,3.153762102E0,9.678127506E0
3.745249532E0,7.756016254E0,-4.705803394E0,3.101089716E0,9.587342236E0
3.747763021E0,7.679401875E0,-4.734533787E0,3.053205729E0,9.524236901E0
3.750276511E0,7.593210697E0,-4.748898983E0,3.014898539E0,9.449788539E0
3.752790000E0,7.545326710E0,-4.753687382E0,2.967014551E0,9.398546389E0
3.755302917E0,7.478289127E0,-4.777629375E0,2.933495522E0,9.346440322E0
3.757815209E0,7.411251545E0,-4.791994572E0,2.904765129E0,9.291260512E0
3.760327500E0,7.368155956E0,-4.830301762E0,2.895188332E0,9.273815438E0
3.762839792E0,7.320271492E0,-4.849455357E0,2.856881142E0,9.233924509E0
3.765352136E0,7.296329498E0,-4.878185749E0,2.828150749E0,9.221255718E0
3.767864584E0,7.267599106E0,-4.892550945E0,2.808997154E0,9.200299806E0
3.770377136E0,7.258022308E0,-4.921281815E0,2.789843559E0,9.202235034E0
3.772889844E0,7.238868713E0,-4.940435410E0,2.765901566E0,9.190175937E0
3.775402709E0,7.234080315E0,-4.954800606E0,2.746747971E0,9.188394389E0
3.777915730E0,7.229291916E0,-4.959589005E0,2.722805977E0,9.180079362E0
3.780428907E0,7.253233910E0,-4.978742599E0,2.694075346E0,9.200832679E0
3.782942240E0,7.286752701E0,-4.978742599E0,2.718017578E0,9.234298151E0
3.785455730E0,7.339425087E0,-4.969165802E0,2.713229179E0,9.269378725E0
3.787969323E0,7.387309551E0,-4.954800606E0,2.732382774E0,9.305283826E0
3.790483021E0,7.454347134E0,-4.945223808E0,2.780266762E0,9.367625791E0
3.792996771E0,7.487865925E0,-4.887762547E0,2.832939148E0,9.379973509E0
3.795510573E0,7.497442722E0,-4.844666958E0,2.880823135E0,9.379850065E0
3.798024375E0,7.483077526E0,-4.806359768E0,2.919130325E0,9.360494930E0
3.800538177E0,7.487865925E0,-4.768052578E0,2.928707123E0,9.347715598E0
3.803051407E0,7.449558735E0,-4.748898983E0,2.943072557E0,9.311801274E0
3.805564323E0,7.411251545E0,-4.720168591E0,2.952649355E0,9.269561974E0
3.808077136E0,7.401674747E0,-4.715380192E0,2.952649355E0,9.259467460E0
3.810589844E0,7.353790283E0,-4.701014996E0,2.962226152E0,9.216971156E0
3.813102552E0,7.310694695E0,-4.720168591E0,2.947860956E0,9.187825241E0
3.815615261E0,7.248445511E0,-4.715380192E0,2.928707123E0,9.129737022E0
3.818127969E0,7.195773125E0,-4.724956989E0,2.885611534E0,9.079158735E0
3.820640677E0,7.128735542E0,-4.729745388E0,2.842515945E0,9.014946410E0
3.823153386E0,7.061697960E0,-4.739322186E0,2.808997154E0,8.956518178E0
3.825666094E0,6.994660378E0,-4.739322186E0,2.761113167E0,8.888767884E0
3.828178802E0,6.956353188E0,-4.739322186E0,2.727594376E0,8.848265114E0
3.830691511E0,6.908469200E0,-4.768052578E0,2.698863983E0,8.817320391E0
3.833204219E0,6.865373611E0,-4.782417774E0,2.650979757E0,8.776819940E0
3.835716927E0,6.836642742E0,-4.787206173E0,2.607884169E0,8.744031494E0
3.838229688E0,6.803123951E0,-4.806359768E0,2.588730574E0,8.722678241E0
3.840742500E0,6.774393559E0,-4.820724964E0,2.564788580E0,8.701145771E0
3.843255365E0,6.731297970E0,-4.844666958E0,2.526481390E0,8.669733474E0
3.845768230E0,6.678625584E0,-4.844666958E0,2.488174200E0,8.617763542E0
3.848281094E0,6.645106792E0,-4.825513363E0,2.454655409E0,8.571368425E0
3.850794011E0,6.597222805E0,-4.825513363E0,2.421136379E0,8.524718724E0
3.853306927E0,6.544550419E0,-4.815936565E0,2.373252392E0,8.465028771E0
3.855819844E0,6.506243229E0,-4.801571369E0,2.334945202E0,8.416546659E0
3.858332761E0,6.467936039E0,-4.772840977E0,2.301426411E0,8.361266119E0
3.860845730E0,6.439205647E0,-4.763264179E0,2.272696018E0,8.325695298E0
3.863358750E0,6.424840450E0,-4.739322186E0,2.263119221E0,8.298280436E0
3.865871823E0,6.415263653E0,-4.748898983E0,2.234388828E0,8.288554924E0
3.868384948E0,6.424840450E0,-4.748898983E0,2.215235233E0,8.290831291E0
3.870898125E0,6.453570843E0,-4.748898983E0,2.229600430E0,8.316954746E0
3.873411355E0,6.472724438E0,-4.748898983E0,2.210446835E0,8.326720747E0
3.875924584E0,6.482301235E0,-4.748898983E0,2.186504602E0,8.327849256E0
3.878437813E0,6.534973621E0,-4.753687382E0,2.181716204E0,8.370382879E0
3.880951094E0,6.597222805E0,-4.744110584E0,2.167351007E0,8.409955075E0
3.883464427E0,6.625953197E0,-4.744110584E0,2.152985811E0,8.428830815E0
3.885977761E0,6.659471989E0,-4.748898983E0,2.143409014E0,8.455460420E0
3.888491094E0,6.688202381E0,-4.724956989E0,2.129043818E0,8.461093146E0
3.891004427E0,6.731297970E0,-4.744110584E0,2.133832216E0,8.507067504E0
3.893517761E0,6.750451565E0,-4.724956989E0,2.109890223E0,8.505612949E0
3.896031094E0,6.783970356E0,-4.734533787E0,2.105101824E0,8.536364429E0
3.898544427E0,6.807912350E0,-4.753687382E0,2.081159830E0,8.560165917E0
3.901057761E0,6.836642742E0,-4.758475780E0,2.062006235E0,8.581063189E0
3.903570990E0,6.846219540E0,-4.758475780E0,2.033275843E0,8.581842715E0
3.906083750E0,6.874950409E0,-4.782417774E0,1.999756932E0,8.610196901E0
3.908596511E0,6.894104004E0,-4.791994572E0,1.990180135E0,8.628597740E0
3.911109271E0,6.908469200E0,-4.806359768E0,1.966238141E0,8.642576776E0
3.913622032E0,6.918045998E0,-4.820724964E0,1.913565755E0,8.646414488E0
3.916134792E0,6.908469200E0,-4.830301762E0,1.889623642E0,8.638833214E0
3.918647552E0,6.913257599E0,-4.849455357E0,1.880046844E0,8.651296089E0
3.921160313E0,6.903680801E0,-4.873397350E0,1.841739655E0,8.648862081E0
3.923673073E0,6.894104004E0,-4.882974148E0,1.817797661E0,8.641556277E0
3.926185834E0,6.889315605E0,-4.892550945E0,1.793855667E0,8.638150405E0
3.928698646E0,6.846219540E0,-4.916493416E0,1.774701953E0,8.613489218E0
3.931211511E0,6.807912350E0,-4.916493416E0,1.755548358E0,8.579133296E0
3.933724427E0,6.788758755E0,-4.935647011E0,1.722029567E0,8.568152816E0
3.936237396E0,6.760028362E0,-4.945223808E0,1.693299174E0,8.545202401E0
3.938750417E0,6.731297970E0,-4.969165802E0,1.669357181E0,8.531690016E0
3.941263490E0,6.692990780E0,-4.983530998E0,1.654991984E0,8.507097346E0
3.943776615E0,6.673837185E0,-5.002684593E0,1.621473074E0,8.496830635E0
3.946289792E0,6.640318394E0,-5.007472992E0,1.602319479E0,8.469713209E0
3.948803021E0,6.621164799E0,-5.007472992E0,1.587954283E0,8.451994313E0
3.951316250E0,6.602011204E0,-5.026626587E0,1.597531080E0,8.450185343E0
3.953829480E0,6.606799603E0,-5.079298973E0,1.602319479E0,8.486253989E0
3.956342709E0,6.635529995E0,-5.103240967E0,1.587954283E0,8.520265576E0
3.958855938E0,6.659471989E0,-5.141548157E0,1.583165884E0,8.560987024E0
3.961369167E0,6.707355976E0,-5.242104530E0,1.592742682E0,8.660549252E0
3.963882396E0,6.740874767E0,-5.342660904E0,1.568800688E0,8.743257617E0
3.966395000E0,6.750451565E0,-5.400122166E0,1.564012289E0,8.784990050E0
3.968907448E0,6.750451565E0,-5.452794552E0,1.559223890E0,8.816617486E0
3.971419896E0,6.736086369E0,-5.481524944E0,1.568800688E0,8.825140842E0
3.973932344E0,6.731297970E0,-5.476736546E0,1.592742682E0,8.822802548E0
3.976444792E0,6.740874767E0,-5.471948147E0,1.602319479E0,8.828875175E0
3.978957240E0,6.731297970E0,-5.424064159E0,1.664568782E0,8.803501212E0
3.981469740E0,6.740874767E0,-5.390544891E0,1.722029567E0,8.801292671E0
3.983982292E0,6.745663166E0,-5.352237701E0,1.789067268E0,8.794952055E0
3.986494896E0,6.726509571E0,-5.309142113E0,1.846528053E0,8.765990351E0
3.989007552E0,6.716932774E0,-5.270834923E0,1.942296147E0,8.756220703E0
3.991520261E0,6.702567577E0,-5.222950935E0,2.009333849E0,8.731612172E0
3.994033021E0,6.692990780E0,-5.179855347E0,2.057217836E0,8.709717115E0
3.996545834E0,6.678625584E0,-5.155913353E0,2.109890223E0,8.697075310E0
3.999058646E0,6.640318394E0,-5.146336555E0,2.143409014E0,8.670225517E0
4.001571511E0,6.625953197E0,-5.136759758E0,2.186504602E0,8.664315262E0
4.004084427E0,6.606799603E0,-5.112817764E0,2.234388828E0,8.647728020E0
4.006597396E0,6.592434406E0,-5.112817764E0,2.267907619E0,8.645490262E0
4.009110469E0,6.578069210E0,-5.112817764E0,2.282272816E0,8.638325603E0
4.011623646E0,6.568492413E0,-5.108029366E0,2.315791607E0,8.637126104E0
4.014136927E0,6.568492413E0,-5.108029366E0,2.368463993E0,8.651397474E0
4.016650313E0,6.544550419E0,-5.103240967E0,2.401982784E0,8.639660285E0
4.019163802E0,6.525396824E0,-5.098452568E0,2.416347980E0,8.626341047E0
4.021677396E0,6.511031628E0,-5.088875771E0,2.449866772E0,8.619282839E0
4.024191042E0,6.501454830E0,-5.112817764E0,2.459443808E0,8.628944561E0
4.026704740E0,6.511031628E0,-5.112817764E0,2.464232206E0,8.637527350E0
4.029218490E0,6.501454830E0,-5.112817764E0,2.445078373E0,8.624861080E0
4.031732292E0,6.458359241E0,-5.122394562E0,2.449866772E0,8.599487039E0
4.034246094E0,6.429628849E0,-5.112817764E0,2.469020605E0,8.577709215E0
4.036759896E0,6.400898457E0,-5.112817764E0,2.507327795E0,8.567327425E0
4.039273698E0,6.410475254E0,-5.084087372E0,2.560000181E0,8.572965550E0
4.041787344E0,6.429628849E0,-5.084087372E0,2.593518972E0,8.597349138E0
4.044300886E0,6.477512836E0,-5.098452568E0,2.627037764E0,8.651804352E0
4.046814427E0,6.511031628E0,-5.108029366E0,2.665344954E0,8.694225703E0
4.049327969E0,6.573280811E0,-5.170278549E0,2.708440781E0,8.790645731E0
4.051841511E0,6.654683590E0,-5.213374138E0,2.770689964E0,8.896111873E0
4.054355052E0,6.755239964E0,-5.261258125E0,2.818573952E0,9.014347627E0
4.056868438E0,6.879738808E0,-5.337872505E0,2.852092743E0,9.162866471E0
4.059381667E0,7.028179169E0,-5.424064159E0,2.890399933E0,9.336497534E0
4.061894896E0,7.210138321E0,-5.515043736E0,2.933495522E0,9.539769284E0
4.064408125E0,7.392097950E0,-5.634753704E0,2.976591349E0,9.759798024E0
4.066921355E0,7.626729488E0,-5.764040470E0,3.010110140E0,1.002257094E1
4.069434584E0,7.842207432E0,-5.907692909E0,3.014898539E0,1.027086492E1
4.071947813E0,8.057685852E0,-6.041768074E0,3.014898539E0,1.051279582E1
4.074461042E0,8.234856606E0,-6.209362030E0,3.005321741E0,1.074248569E1
4.076974271E0,8.421604156E0,-6.372167587E0,2.962226152E0,1.096825967E1
4.079487500E0,8.570044518E0,-6.534973621E0,2.895188332E0,1.115946498E1
4.082000730E0,8.699332237E0,-6.659471989E0,2.794631958E0,1.130649885E1
4.084513959E0,8.799888611E0,-6.755239964E0,2.694075346E0,1.141618800E1
4.087027188E0,8.886079788E0,-6.831854343E0,2.564788580E0,1.149846895E1
4.089540209E0,8.981847763E0,-6.970718384E0,2.416347980E0,1.162339200E1
4.092053125E0,9.063250542E0,-7.076063156E0,2.282272816E0,1.172271084E1
4.094566042E0,9.106346130E0,-7.143100739E0,2.133832216E0,1.176871565E1
4.097078907E0,9.087192535E0,-7.176619530E0,2.004545450E0,1.175155898E1
4.099591615E0,9.048885345E0,-7.190984726E0,1.870470047E0,1.170859708E1
4.102104323E0,8.972270966E0,-7.181407928E0,1.755548358E0,1.162567057E1
4.104617032E0,8.914810181E0,-7.143100739E0,1.645415068E0,1.154145223E1
4.107129740E0,8.814253807E0,-7.071274757E0,1.549647093E0,1.140593718E1
4.109642448E0,8.742427826E0,-7.004237175E0,1.468244195E0,1.129801415E1
4.112155157E0,8.661025047E0,-6.927622795E0,1.377264500E0,1.117596394E1
4.114667865E0,8.589199066E0,-6.846219540E0,1.310226917E0,1.106172487E1
4.117180625E0,8.507795334E0,-6.779181957E0,1.262342811E0,1.095141081E1
4.119693438E0,8.426392555E0,-6.692990780E0,1.219247222E0,1.082990216E1
4.122206302E0,8.330624580E0,-6.587646008E0,1.190516829E0,1.068708174E1
4.124719219E0,8.239645004E0,-6.463147640E0,1.156997919E0,1.053578053E1
4.127232188E0,8.129511833E0,-6.324283600E0,1.176151633E0,1.036671878E1
4.129745209E0,8.048109055E0,-6.185420036E0,1.180940032E0,1.021890893E1
4.132258282E0,7.990648270E0,-6.032191277E0,1.209670424E0,1.008469602E1
4.134771407E0,7.923610687E0,-5.859808445E0,1.267131209E0,9.936125142E0
4.137284584E0,7.899668694E0,-5.653907299E0,1.348534107E0,9.807648926E0
4.139797813E0,7.842207432E0,-5.452794552E0,1.449090600E0,9.660903136E0
4.142311094E0,7.827842236E0,-5.246892929E0,1.573589087E0,9.554118593E0
4.144824427E0,7.799111843E0,-5.040991783E0,1.726817966E0,9.445615067E0
4.147337813E0,7.770381451E0,-4.835090160E0,1.903988957E0,9.347839253E0
4.149851250E0,7.794323444E0,-4.629189014E0,2.100313425E0,9.305492215E0
4.152364740E0,7.837419033E0,-4.423287868E0,2.287061214E0,9.285540462E0
4.154878282E0,7.880515099E0,-4.222174644E0,2.502539396E0,9.283963614E0
4.157391875E0,7.952341080E0,-4.006696701E0,2.727594376E0,9.313061697E0
4.159905469E0,8.024167061E0,-3.796006680E0,2.952649355E0,9.354948527E0
4.162419063E0,8.081627846E0,-3.590105534E0,3.168127298E0,9.393540172E0
4.164932657E0,8.105569839E0,-3.369838953E0,3.407547474E0,9.416339882E0
4.167446146E0,8.139088631E0,-3.149572372E0,3.651756048E0,9.460438262E0
4.169959532E0,8.182184219E0,-2.953247786E0,3.872022629E0,9.521678965E0
4.172472292E0,8.244433403E0,-2.771288395E0,4.106654644E0,9.618489168E0
4.174985052E0,8.368931770E0,-2.632424831E0,4.336497784E0,9.786413669E0
4.177497865E0,8.507795334E0,-2.560598612E0,4.547187805E0,9.980789730E0
4.180010730E0,8.675390244E0,-2.522291422E0,4.724358559E0,1.019528880E1
4.182523698E0,8.828619003E0,-2.531868219E0,4.868010521E0,1.039482547E1
4.185036771E0,8.972270966E0,-2.570175409E0,5.002085686E0,1.058906555E1
4.187549948E0,9.101557732E0,-2.613271236E0,5.121796131E0,1.076570180E1
4.190063282E0,9.197325706E0,-2.661155224E0,5.207987309E0,1.089934306E1
4.192576771E0,9.302670479E0,-2.747346401E0,5.255871296E0,1.103230590E1
4.195090417E0,9.393650055E0,-2.823961020E0,5.265448093E0,1.113285053E1
4.197604219E0,9.489418030E0,-2.934094191E0,5.251082897E0,1.123529416E1
4.200118125E0,9.551667213E0,-3.053804159E0,5.184045315E0,1.128868426E1
4.202632136E0,9.580398560E0,-3.168725967E0,5.078700542E0,1.129681637E1
4.205146198E0,9.613917351E0,-3.293224335E0,4.939836502E0,1.129932379E1
4.207660313E0,9.628282547E0,-3.412934542E0,4.767454147E0,1.127300164E1
4.210174427E0,9.604340553E0,-3.542221308E0,4.566341400E0,1.120902150E1
4.212688490E0,9.618705750E0,-3.676296711E0,4.360439777E0,1.118249046E1
4.215202240E0,9.609128952E0,-3.800795317E0,4.144961834E0,1.113382741E1
4.217715990E0,9.585186958E0,-3.920505285E0,3.929483652E0,1.107641695E1
4.220229532E0,9.537302017E0,-4.054580688E0,3.714005470E0,1.100879607E1
4.222743073E0,9.484629631E0,-4.174290657E0,3.503315687E0,1.093874410E1
4.225256615E0,9.446322441E0,-4.246116638E0,3.283049107E0,1.086466408E1
4.227770157E0,9.393650055E0,-4.322731018E0,3.077147722E0,1.078867475E1
4.230283698E0,9.364919662E0,-4.394556999E0,2.871246338E0,1.073582354E1
4.232797240E0,9.345766068E0,-4.461595058E0,2.679710150E0,1.069719685E1
4.235310782E0,9.312247276E0,-4.514267445E0,2.507327795E0,1.064815724E1
4.237824323E0,9.312247276E0,-4.586093426E0,2.325368404E0,1.063755331E1
4.240337865E0,9.317035675E0,-4.638765812E0,2.181716204E0,1.063415195E1
4.242851407E0,9.345766068E0,-4.681861401E0,2.052429438E0,1.065249436E1
4.245364948E0,9.369708061E0,-4.734533787E0,1.903988957E0,1.066922740E1
4.247878490E0,9.398438454E0,-4.806359768E0,1.774701953E0,1.070426581E1
4.250391719E0,9.470264435E0,-4.863820553E0,1.659780383E0,1.077485637E1
4.252904480E0,9.551667213E0,-4.897339344E0,1.559223890E0,1.084663350E1
4.255417240E0,9.604340553E0,-4.930858612E0,1.453878999E0,1.089359850E1
4.257930000E0,9.700108528E0,-4.964377403E0,1.334168911E0,1.097803057E1
4.260442761E0,9.795876503E0,-4.983530998E0,1.233612418E0,1.105968251E1
4.262955521E0,9.896432877E0,-4.993107796E0,1.152209520E0,1.114441995E1
4.265468282E0,9.973047256E0,-4.997896194E0,1.070806742E0,1.120657240E1
4.267981094E0,1.004008484E1,-4.954800606E0,9.989806414E-1,1.124061008E1
4.270493907E0,1.008318043E1,-4.916493416E0,9.463081956E-1,1.125779438E1
4.273006719E0,1.010712242E1,-4.849455357E0,8.601169586E-1,1.124326207E1
