"Time (s)","Acceleration x (m/s^2)","Acceleration y (m/s^2)","Acceleration z (m/s^2)","Absolute acceleration (m/s^2)"
2.270270800E-2,-2.203862667E0,2.500743628E0,9.723451614E0,1.027892215E1
2.520317700E-2,-2.170343876E0,2.539050817E0,9.905410767E0,1.045343647E1
2.770458300E-2,-2.179920673E0,2.404975653E0,9.996390343E0,1.051017516E1
3.020734300E-2,-2.122459888E0,2.266111851E0,1.000596714E1,1.047661574E1
3.271177100E-2,-2.012326479E0,2.266111851E0,9.847949982E0,1.030372940E1
3.521812500E-2,-2.141613483E0,2.366668463E0,9.828796387E0,1.033406340E1
3.772661400E-2,-2.175132275E0,2.419340849E0,9.747393608E0,1.027599595E1
4.023734300E-2,-2.069787264E0,2.472013235E0,9.689932823E0,1.021223124E1
4.275031200E-2,-1.906981707E0,2.524685621E0,9.737816811E0,1.023893026E1
4.526541600E-2,-1.748964310E0,2.577358246E0,9.718663216E0,1.020558996E1
4.778250000E-2,-1.605312228E0,2.668337822E0,9.733028412E0,1.021904576E1
5.030135400E-2,-1.495178938E0,2.721010208E0,9.642048836E0,1.012958846E1
5.282166600E-2,-1.385045648E0,2.701856613E0,9.455301285E0,9.930815827E0
5.534312500E-2,-1.389834046E0,2.706645012E0,9.421782494E0,9.900886387E0
5.786531200E-2,-1.466448545E0,2.725798607E0,9.407417297E0,9.903532177E0
6.038786400E-2,-1.543063045E0,2.740163803E0,9.416994095E0,9.928208248E0
6.291041600E-2,-1.571793437E0,2.716221809E0,9.455301285E0,9.962485529E0
6.542406200E-2,-1.562216640E0,2.744952202E0,9.560646057E0,1.006882498E1
6.793734300E-2,-1.528697729E0,2.807201385E0,9.598953247E0,1.011717351E1
7.045062500E-2,-1.538274646E0,2.816778183E0,9.522338867E0,1.004865492E1
7.296390600E-2,-1.514332533E0,2.797624588E0,9.431359291E0,9.953413708E0
7.547703100E-2,-1.476025343E0,2.807201385E0,9.373898506E0,9.895908429E0
7.798968700E-2,-1.476025343E0,2.816778183E0,9.316437721E0,9.844231913E0
8.050234300E-2,-1.480813742E0,2.821566820E0,9.273342133E0,9.805555719E0
8.301500000E-2,-1.495178938E0,2.658761024E0,9.273342133E0,9.762143440E0
8.552765600E-2,-1.538274646E0,2.606088638E0,9.321226120E0,9.800165471E0
8.804031200E-2,-1.543063045E0,2.610877037E0,9.383475304E0,9.861406149E0
9.055286400E-2,-1.528697729E0,2.615665436E0,9.421782494E0,9.896898897E0
9.306541600E-2,-1.528697729E0,2.658761024E0,9.416994095E0,9.903822732E0
9.557796800E-2,-1.576581836E0,2.682703018E0,9.292495728E0,9.799641964E0
9.809052100E-2,-1.662773132E0,2.692279816E0,9.072228432E0,9.608252381E0
1.006031250E-1,-1.701080322E0,2.687491417E0,8.918999672E0,9.469151996E0
1.031157810E-1,-1.705868721E0,2.711433411E0,8.866327286E0,9.427280561E0
1.056284890E-1,-1.677138329E0,2.744952202E0,8.861538887E0,9.427323428E0
1.081411980E-1,-1.634042621E0,2.788047791E0,8.861538887E0,9.432400395E0
1.106539060E-1,-1.619677424E0,2.802412987E0,8.842385292E0,9.416190905E0
1.131666140E-1,-1.571793437E0,2.840720415E0,8.851962090E0,9.428544952E0
1.156791660E-1,-1.514332533E0,2.907757998E0,8.823231697E0,9.412633913E0
1.181916140E-1,-1.476025343E0,3.013102770E0,8.871115685E0,9.484415248E0
1.207040620E-1,-1.456871748E0,3.080140591E0,8.804078102E0,9.440420148E0
1.232165100E-1,-1.456871748E0,3.056198359E0,8.617330551E0,9.258574919E0
1.257289580E-1,-1.509544134E0,2.965218782E0,8.430583000E0,9.063441711E0
1.282414580E-1,-1.538274646E0,2.845508814E0,8.401852608E0,9.003018190E0
1.307540100E-1,-1.533486247E0,2.735375404E0,8.444948196E0,9.008385466E0
1.332666660E-1,-1.504755735E0,2.644395828E0,8.555081367E0,9.080007507E0
1.357794270E-1,-1.519120932E0,2.582146645E0,8.646060944E0,9.150386852E0
1.382922910E-1,-1.562216640E0,2.558204412E0,8.703521729E0,9.205227923E0
1.408052600E-1,-1.614889026E0,2.524685621E0,8.732252121E0,9.232233270E0
1.433183330E-1,-1.662773132E0,2.524685621E0,8.751405716E0,9.258831135E0
1.458315100E-1,-1.739387512E0,2.519897223E0,8.823231697E0,9.339420138E0
1.483447910E-1,-1.787271619E0,2.534262419E0,8.871115685E0,9.397527299E0
1.508581770E-1,-1.825578809E0,2.567781210E0,8.923788071E0,9.463626782E0
1.533716660E-1,-1.758541107E0,2.582146645E0,8.971672058E0,9.500044612E0
1.558852600E-1,-1.744175911E0,2.586935043E0,8.990825653E0,9.516791920E0
1.583989580E-1,-1.806425214E0,2.634819031E0,8.990825653E0,9.541508754E0
1.609127600E-1,-1.820790410E0,2.668337822E0,9.009979248E0,9.571574087E0
1.634266140E-1,-1.816002011E0,2.788047791E0,9.201516151E0,9.784629440E0
1.659405210E-1,-1.854309201E0,3.032256365E0,9.493608475E0,1.013714176E1
1.684544270E-1,-1.916558504E0,2.979583979E0,9.297284126E0,9.949402460E0
1.709683330E-1,-1.978807688E0,2.888604403E0,9.053074837E0,9.706589476E0
1.734820310E-1,-2.045845270E0,2.802412987E0,8.923788071E0,9.574601556E0
1.759948960E-1,-2.060210466E0,2.725798607E0,8.861538887E0,9.497437373E0
1.785077600E-1,-2.017114878E0,2.653972626E0,8.866327286E0,9.472279697E0
1.810206250E-1,-1.983596087E0,2.577358246E0,8.895057678E0,9.470980945E0
1.835334890E-1,-1.950077295E0,2.515108824E0,8.928576469E0,9.478821215E0
1.860463540E-1,-1.945288897E0,2.462436438E0,8.966883659E0,9.500144455E0
1.885592180E-1,-1.921346903E0,2.419340849E0,9.009979248E0,9.524941476E0
1.910720830E-1,-1.902193308E0,2.371456861E0,9.009979248E0,9.509041649E0
1.935849480E-1,-1.873462796E0,2.342726469E0,9.024344444E0,9.509838211E0
1.960978120E-1,-1.878251195E0,2.337938070E0,9.048286438E0,9.532327598E0
1.986106770E-1,-1.854309201E0,2.352303267E0,9.081805229E0,9.563000549E0
2.011235410E-1,-1.839944005E0,2.333149672E0,9.115324020E0,9.587393458E0
2.036364060E-1,-1.854309201E0,2.347514868E0,9.110535622E0,9.589116121E0
2.061492710E-1,-1.835155606E0,2.352303267E0,9.134477615E0,9.609360440E0
2.086621350E-1,-1.830367208E0,2.371456861E0,9.144054413E0,9.622254562E0
2.111750000E-1,-1.825578809E0,2.376245260E0,9.148842812E0,9.627076624E0
2.136878640E-1,-1.816002011E0,2.400187254E0,9.163208008E0,9.644850603E0
2.162007290E-1,-1.816002011E0,2.414552450E0,9.167996407E0,9.652983215E0
2.187136460E-1,-1.806425214E0,2.433706045E0,9.139266014E0,9.628721641E0
2.212266140E-1,-1.811213613E0,2.476801634E0,9.115324020E0,9.617908977E0
2.237396350E-1,-1.839944005E0,2.510320425E0,9.105747223E0,9.622979532E0
2.262527080E-1,-1.868674397E0,2.510320425E0,9.110535622E0,9.633042715E0
2.287658330E-1,-1.897404790E0,2.500743628E0,9.110535622E0,9.636167440E0
2.312789580E-1,-1.902193308E0,2.495955229E0,9.096170425E0,9.622289140E0
2.337920830E-1,-1.906981707E0,2.491166830E0,9.096170425E0,9.621996041E0
2.363052080E-1,-1.911770105E0,2.495955229E0,9.081805229E0,9.610610993E0
2.388183330E-1,-1.926135302E0,2.472013235E0,9.043498039E0,9.571086846E0
2.413308850E-1,-1.969230890E0,2.462436438E0,9.029132843E0,9.563822636E0
2.438433330E-1,-1.954865694E0,2.424129248E0,9.038709641E0,9.560134646E0
2.463557810E-1,-1.906981707E0,2.419340849E0,9.009979248E0,9.522054160E0
2.488682290E-1,-1.926135302E0,2.395398855E0,9.014767647E0,9.524388096E0
2.513806770E-1,-1.935712099E0,2.424129248E0,9.038709641E0,9.556236493E0
2.538931770E-1,-1.964442492E0,2.438494444E0,9.048286438E0,9.574799054E0
2.564057290E-1,-1.988384485E0,2.419340849E0,9.048286438E0,9.574882269E0
2.589183330E-1,-1.978807688E0,2.409764051E0,9.053074837E0,9.575009486E0
2.614310410E-1,-1.993172884E0,2.390610456E0,9.086593628E0,9.604891476E0
2.639438020E-1,-2.041056871E0,2.381033659E0,9.105747223E0,9.630673233E0
2.664566140E-1,-2.103306293E0,2.352303267E0,9.115324020E0,9.646054117E0
2.689694790E-1,-2.127248287E0,2.342726469E0,9.153631210E0,9.685169948E0
2.714823960E-1,-2.184709072E0,2.323572636E0,9.191938400E0,9.729525943E0
2.739953640E-1,-2.218227863E0,2.313995838E0,9.258976936E0,9.798151127E0
2.765084370E-1,-2.280477047E0,2.313995838E0,9.330802917E0,9.880234582E0
2.790216140E-1,-2.505532026E0,2.448071241E0,9.723451614E0,1.033519496E1
2.815348960E-1,-2.610877037E0,2.505532026E0,9.891045570E0,1.053219598E1
2.840482810E-1,-2.596511841E0,2.539050817E0,9.876680374E0,1.052318716E1
2.865617180E-1,-2.529474020E0,2.582146645E0,9.809642792E0,1.045441590E1
2.890752080E-1,-2.510320425E0,2.644395828E0,9.776124001E0,1.043394165E1
2.915887500E-1,-2.519897223E0,2.677914619E0,9.737816811E0,1.040894735E1
2.941022910E-1,-2.428917646E0,2.673126221E0,9.737816811E0,1.038606379E1
2.966157810E-1,-2.381033659E0,2.649184227E0,9.718663216E0,1.035084118E1
2.991290100E-1,-2.448071241E0,2.634819031E0,9.685144424E0,1.033137680E1
3.016422390E-1,-2.534262419E0,2.606088638E0,9.656414032E0,1.031797053E1
3.041554680E-1,-2.586935043E0,2.582146645E0,9.646837234E0,1.031606431E1
3.066686980E-1,-2.601300240E0,2.543839216E0,9.665990829E0,1.032808112E1
3.091813020E-1,-2.620453835E0,2.515108824E0,9.713874817E0,1.037072392E1
3.116939060E-1,-2.649184227E0,2.491166830E0,9.685144424E0,1.034534252E1
3.142065100E-1,-2.653972626E0,2.457648039E0,9.675567627E0,1.032957954E1
3.167188020E-1,-2.625242233E0,2.424129248E0,9.618106842E0,1.026042293E1
3.192310930E-1,-2.596511841E0,2.404975653E0,9.555857658E0,1.019020104E1
3.217433850E-1,-2.524685621E0,2.371456861E0,9.474454880E0,1.008777183E1
3.242556770E-1,-2.481590033E0,2.381033659E0,9.402628899E0,1.001184501E1
3.267680210E-1,-2.462436438E0,2.371456861E0,9.359533310E0,9.964349685E0
3.292804160E-1,-2.414552450E0,2.390610456E0,9.258976936E0,9.862744841E0
3.317929160E-1,-2.381033659E0,2.400187254E0,9.187150002E0,9.789481360E0
3.343055730E-1,-2.347514868E0,2.419340849E0,9.096170425E0,9.700739797E0
3.368183850E-1,-2.318784237E0,2.433706045E0,9.024344444E0,9.630081936E0
3.393313540E-1,-2.313995838E0,2.457648039E0,8.938153267E0,9.554328571E0
3.418444790E-1,-2.290053844E0,2.452859640E0,8.871115685E0,9.484595959E0
3.443577600E-1,-2.266111851E0,2.443282843E0,8.823231697E0,9.431559338E0
3.468711980E-1,-2.275688648E0,2.419340849E0,8.756194115E0,9.364982880E0
3.493847390E-1,-2.275688648E0,2.385822058E0,8.717886925E0,9.320539585E0
3.518983850E-1,-2.285265446E0,2.376245260E0,8.703521729E0,9.307001137E0
3.544120830E-1,-2.290053844E0,2.357091665E0,8.770559311E0,9.366052442E0
3.569258330E-1,-2.280477047E0,2.294842243E0,8.847173691E0,9.420157047E0
3.594395830E-1,-2.299630642E0,2.275688648E0,8.971672058E0,9.537188235E0
3.619531250E-1,-2.285265446E0,2.275688648E0,9.072228432E0,9.628422804E0
3.644660930E-1,-2.246958256E0,2.251746655E0,9.177573204E0,9.713240155E0
3.669789580E-1,-2.242169857E0,2.251746655E0,9.211092949E0,9.743814550E0
3.694917710E-1,-2.223016262E0,2.237381458E0,9.220669746E0,9.745174584E0
3.720045830E-1,-2.218227863E0,2.175132275E0,9.191938400E0,9.702755630E0
3.745173960E-1,-2.270900249E0,2.151190281E0,9.177573204E0,9.696002139E0
3.770302080E-1,-2.299630642E0,2.160767078E0,9.144054413E0,9.673207667E0
3.795430210E-1,-2.313995838E0,2.151190281E0,9.077016830E0,9.611161787E0
3.820558330E-1,-2.328361034E0,2.189497471E0,9.029132843E0,9.578121119E0
3.845686460E-1,-2.309207439E0,2.218227863E0,8.947730064E0,9.503412395E0
3.870814580E-1,-2.290053844E0,2.246958256E0,8.895057678E0,9.455962093E0
3.895942710E-1,-2.290053844E0,2.290053844E0,8.847173691E0,9.421314958E0
3.921070830E-1,-2.275688648E0,2.342726469E0,8.823231697E0,9.408323108E0
3.946198960E-1,-2.266111851E0,2.381033659E0,8.799289703E0,9.393193466E0
3.971327080E-1,-2.266111851E0,2.414552450E0,8.799289703E0,9.401745888E0
3.996455210E-1,-2.218227863E0,2.433706045E0,8.832808495E0,9.426662499E0
4.021579680E-1,-2.189497471E0,2.443282843E0,8.851962090E0,9.440379392E0
4.046703640E-1,-2.160767078E0,2.467224836E0,8.837596893E0,9.426517470E0
4.071827600E-1,-2.122459888E0,2.481590033E0,8.837596893E0,9.421583939E0
4.096951560E-1,-2.074575663E0,2.491166830E0,8.847173691E0,9.422433798E0
4.122075520E-1,-2.026691675E0,2.476801634E0,8.818443298E0,9.381202891E0
4.147200000E-1,-1.945288897E0,2.467224836E0,8.813654900E0,9.356915088E0
4.172325000E-1,-1.902193308E0,2.452859640E0,8.828020096E0,9.357820185E0
4.197450520E-1,-1.892616391E0,2.452859640E0,8.895057678E0,9.419159640E0
4.222576560E-1,-1.911770105E0,2.428917646E0,8.947730064E0,9.466592796E0
4.247703120E-1,-1.954865694E0,2.414552450E0,8.995614052E0,9.516965671E0
4.272830210E-1,-1.988384485E0,2.390610456E0,9.057863235E0,9.576720608E0
4.297957810E-1,-2.012326479E0,2.381033659E0,9.105747223E0,9.624625272E0
4.323085930E-1,-2.017114878E0,2.352303267E0,9.167996407E0,9.677512139E0
4.348215100E-1,-2.041056871E0,2.333149672E0,9.258976936E0,9.764125893E0
4.373345310E-1,-2.050633669E0,2.290053844E0,9.407417297E0,9.896915947E0
4.398476560E-1,-2.084152699E0,2.285265446E0,9.608530045E0,1.009405668E1
4.423608330E-1,-2.112883091E0,2.275688648E0,9.761758804E0,1.024377707E1
4.448740620E-1,-2.141613483E0,2.256535053E0,9.900622368E0,1.037789873E1
4.473873430E-1,-2.160767078E0,2.246958256E0,1.002990913E1,1.050318109E1
4.499006250E-1,-2.136825085E0,2.227804661E0,1.007300472E1,1.053539554E1
4.524139060E-1,-2.074575663E0,2.237381458E0,1.006342793E1,1.051581293E1
4.549271870E-1,-2.007538080E0,2.261323452E0,1.000117874E1,1.044831896E1
4.574404680E-1,-1.906981707E0,2.328361034E0,9.881468773E0,1.032963065E1
4.599535410E-1,-1.825578809E0,2.414552450E0,9.694721222E0,1.015629958E1
4.624665620E-1,-1.739387512E0,2.452859640E0,9.531915665E0,9.994969013E0
4.649795830E-1,-1.677138329E0,2.500743628E0,9.321226120E0,9.795497335E0
4.674926040E-1,-1.614889026E0,2.553416014E0,9.129689217E0,9.616601536E0
4.700056250E-1,-1.571793437E0,2.567781210E0,8.952518463E0,9.445190405E0
4.725186460E-1,-1.562216640E0,2.606088638E0,8.784924507E0,9.295542879E0
4.750316660E-1,-1.552639842E0,2.610877037E0,8.583811760E0,9.105448573E0
4.775445830E-1,-1.590947032E0,2.620453835E0,8.377910614E0,8.921170159E0
4.800575000E-1,-1.653196216E0,2.601300240E0,8.176796913E0,8.738411093E0
4.825704160E-1,-1.715445518E0,2.596511841E0,8.042721748E0,8.623804276E0
4.850833330E-1,-1.835155606E0,2.529474020E0,7.951742172E0,8.543783617E0
4.875962500E-1,-1.950077295E0,2.452859640E0,7.808090210E0,8.413417534E0
4.901091660E-1,-2.074575663E0,2.414552450E0,7.635707855E0,8.272723987E0
4.926220830E-1,-2.132036686E0,2.409764051E0,7.496844292E0,8.158138118E0
4.951350000E-1,-2.093729496E0,2.376245260E0,7.448959827E0,8.094272497E0
4.976477600E-1,-1.997961283E0,2.371456861E0,7.463325024E0,8.081885754E0
5.001605210E-1,-1.883039594E0,2.342726469E0,7.530363083E0,8.108056091E0
5.026732810E-1,-1.772906303E0,2.246958256E0,7.645284653E0,8.163479380E0
5.051860410E-1,-1.681926727E0,2.170343876E0,7.760206223E0,8.231650544E0
5.076983330E-1,-1.619677424E0,2.069787264E0,7.822455406E0,8.252162314E0
5.102106250E-1,-1.581370234E0,1.926135302E0,7.870339394E0,8.255481282E0
5.127229160E-1,-1.567005038E0,1.873462796E0,7.846397400E0,8.217744204E0
5.152352600E-1,-1.509544134E0,1.954865694E0,7.793725014E0,8.175718498E0
5.177476560E-1,-1.490390539E0,1.796848416E0,7.860762596E0,8.200092486E0
5.202601560E-1,-1.528697729E0,1.600523829E0,7.970896244E0,8.272471227E0
5.227727600E-1,-1.528697729E0,1.514332533E0,8.013991356E0,8.297841721E0
5.252854680E-1,-1.509544134E0,1.586158633E0,8.018779755E0,8.312367380E0
5.277982810E-1,-1.476025343E0,1.653196216E0,8.090605736E0,8.388659590E0
5.303111980E-1,-1.456871748E0,1.519120932E0,8.320449829E0,8.582545605E0
5.328241660E-1,-1.485602140E0,1.432929754E0,8.564658165E0,8.809862138E0
5.353371870E-1,-1.504755735E0,1.418564558E0,8.808866501E0,9.048355887E0
5.378502600E-1,-1.581370234E0,1.471236944E0,9.115324020E0,9.367731954E0
5.403633330E-1,-1.662773132E0,1.590947032E0,9.460089684E0,9.735975748E0
5.428764060E-1,-1.705868721E0,1.523909330E0,9.895833969E0,1.015676217E1
5.453894270E-1,-1.729810715E0,1.490390539E0,1.022623444E1,1.047804275E1
5.479022910E-1,-1.725022316E0,1.499967337E0,1.033636761E1,1.058612768E1
5.504149480E-1,-1.691503525E0,1.552639842E0,1.036988640E1,1.062103661E1
5.529276040E-1,-1.638831019E0,1.638831019E0,1.036509800E1,1.062105413E1
5.554402600E-1,-1.576581836E0,1.725022316E0,1.042734718E1,1.068601336E1
5.579529160E-1,-1.528697729E0,1.825578809E0,1.057099915E1,1.083585150E1
5.604654160E-1,-1.485602140E0,1.878251195E0,1.073859310E1,1.100237352E1
5.629779160E-1,-1.466448545E0,1.950077295E0,1.088224506E1,1.115242263E1
5.654904160E-1,-1.452083349E0,2.021903276E0,1.095885944E1,1.123802648E1
5.680029160E-1,-1.432929754E0,2.103306293E0,1.094928265E1,1.124117323E1
5.705152600E-1,-1.442506552E0,2.194285870E0,1.085830307E1,1.117132316E1
5.730273430E-1,-1.499967337E0,2.285265446E0,1.070986271E1,1.105321218E1
5.755393750E-1,-1.557428241E0,2.371456861E0,1.056621075E1,1.094048445E1
5.780513540E-1,-1.610100627E0,2.428917646E0,1.045128918E1,1.084995440E1
5.805633330E-1,-1.657984734E0,2.457648039E0,1.033636761E1,1.075311316E1
5.830753120E-1,-1.710657120E0,2.486378431E0,1.021665764E1,1.065309902E1
5.855872910E-1,-1.739387512E0,2.519897223E0,1.006821632E1,1.052351324E1
5.880992710E-1,-1.763329506E0,2.534262419E0,9.919775963E0,1.038911797E1
5.906112500E-1,-1.796848416E0,2.558204412E0,9.790489197E0,1.027748767E1
5.931232290E-1,-1.806425214E0,2.567781210E0,9.685144424E0,1.018129142E1
5.956352600E-1,-1.811213613E0,2.567781210E0,9.603741646E0,1.010474387E1
5.981473960E-1,-1.820790410E0,2.567781210E0,9.541492462E0,1.004733081E1
6.006596870E-1,-1.801636815E0,2.558204412E0,9.498396873E0,1.000049240E1
6.031721350E-1,-1.787271619E0,2.553416014E0,9.479243279E0,9.978493188E0
6.056847390E-1,-1.753752708E0,2.548627615E0,9.455301285E0,9.948561387E0
6.081975520E-1,-1.748964310E0,2.519897223E0,9.460089684E0,9.944951231E0
6.107105730E-1,-1.734599113E0,2.500743628E0,9.436147690E0,9.914808924E0
6.132238020E-1,-1.701080322E0,2.491166830E0,9.445724487E0,9.915709633E0
6.157371870E-1,-1.667561531E0,2.457648039E0,9.450512886E0,9.906209626E0
6.182507290E-1,-1.634042621E0,2.448071241E0,9.431359291E0,9.879963875E0
6.207643750E-1,-1.576581836E0,2.443282843E0,9.407417297E0,9.846559884E0
6.232781250E-1,-1.552639842E0,2.424129248E0,9.383475304E0,9.815126177E0
6.257919270E-1,-1.509544134E0,2.409764051E0,9.378686905E0,9.800278279E0
6.283053120E-1,-1.476025343E0,2.404975653E0,9.354744911E0,9.771070108E0
6.308173960E-1,-1.466448545E0,2.385822058E0,9.345168114E0,9.755756521E0
6.333294790E-1,-1.437718153E0,2.361880064E0,9.335591316E0,9.736466307E0
6.358415620E-1,-1.413776159E0,2.352303267E0,9.340379715E0,9.735234302E0
6.383536460E-1,-1.408987641E0,2.347514868E0,9.340379715E0,9.733384070E0
6.408657290E-1,-1.408987641E0,2.342726469E0,9.359533310E0,9.750614199E0
6.433778120E-1,-1.399410844E0,2.318784237E0,9.359533310E0,9.743509369E0
6.458898960E-1,-1.399410844E0,2.323572636E0,9.349956512E0,9.735452084E0
6.484019790E-1,-1.385045648E0,2.318784237E0,9.359533310E0,9.741456542E0
6.509140620E-1,-1.375468850E0,2.333149672E0,9.369110107E0,9.752729164E0
6.534261460E-1,-1.380257249E0,2.366668463E0,9.349956512E0,9.743095836E0
6.559382810E-1,-1.389834046E0,2.385822058E0,9.311649323E0,9.712394075E0
6.584504680E-1,-1.394622445E0,2.433706045E0,9.268553734E0,9.683696876E0
6.609627600E-1,-1.399410844E0,2.457648039E0,9.254188538E0,9.676693138E0
6.634752080E-1,-1.389834046E0,2.486378431E0,9.225458145E0,9.655195201E0
6.659878120E-1,-1.394622445E0,2.529474020E0,9.201516151E0,9.644226774E0
6.685005730E-1,-1.423352957E0,2.562992811E0,9.187150002E0,9.643577704E0
6.710135410E-1,-1.442506552E0,2.601300240E0,9.187150002E0,9.656671955E0
6.735267180E-1,-1.476025343E0,2.639607430E0,9.201516151E0,9.685766757E0
6.760400520E-1,-1.528697729E0,2.673126221E0,9.235034943E0,9.734905800E0
6.785535410E-1,-1.552639842E0,2.716221809E0,9.254188538E0,9.768754111E0
6.810671350E-1,-1.600523829E0,2.744952202E0,9.306860924E0,9.834332686E0
6.835807290E-1,-1.653196216E0,2.783259392E0,9.364321709E0,9.908083146E0
6.860942180E-1,-1.729810715E0,2.807201385E0,9.407417297E0,9.968556813E0
6.886065620E-1,-1.782483220E0,2.859874010E0,9.445724487E0,1.002885023E1
6.911186980E-1,-1.854309201E0,2.883816004E0,9.455301285E0,1.005771245E1
6.936308330E-1,-1.897404790E0,2.926911592E0,9.479243279E0,1.010064402E1
6.961430210E-1,-1.892616391E0,2.931699991E0,9.555857658E0,1.017306626E1
6.986552600E-1,-1.777694821E0,2.926911592E0,9.694721222E0,1.028176200E1
7.011676040E-1,-1.725022316E0,2.941276789E0,9.804854393E0,1.038084683E1
7.036800520E-1,-1.715445518E0,2.950853586E0,9.766547203E0,1.034580758E1
7.061926040E-1,-1.744175911E0,2.974795580E0,9.689932823E0,1.028524946E1
7.087052600E-1,-1.758541107E0,2.984372377E0,9.632472038E0,1.023637938E1
7.112180210E-1,-1.787271619E0,2.979583979E0,9.575011253E0,1.018592662E1
7.137308850E-1,-1.811213613E0,2.955641985E0,9.507973671E0,1.012017182E1
7.162438020E-1,-1.844732404E0,2.946065187E0,9.450512886E0,1.006948517E1
7.187567710E-1,-1.878251195E0,2.883816004E0,9.369110107E0,9.981204662E0
7.212697910E-1,-1.897404790E0,2.826355219E0,9.321226120E0,9.923390809E0
7.237828120E-1,-1.921346903E0,2.773682594E0,9.302072525E0,9.895122148E0
7.262958330E-1,-1.921346903E0,2.692279816E0,9.292495728E0,9.863590694E0
7.288085410E-1,-1.902193308E0,2.644395828E0,9.287707329E0,9.842391788E0
7.313211460E-1,-1.878251195E0,2.591723442E0,9.258976936E0,9.796607161E0
7.338337500E-1,-1.854309201E0,2.529474020E0,9.258976936E0,9.775753441E0
7.363463540E-1,-1.820790410E0,2.481590033E0,9.235034943E0,9.734445911E0
7.388589580E-1,-1.806425214E0,2.443282843E0,9.206304550E0,9.694784504E0
7.413711460E-1,-1.782483220E0,2.395398855E0,9.196727753E0,9.669280400E0
7.438830210E-1,-1.696291924E0,2.347514868E0,9.249400139E0,9.692246142E0
7.463947910E-1,-1.610100627E0,2.285265446E0,9.316437721E0,9.726812119E0
7.489065620E-1,-1.523909330E0,2.242169857E0,9.359533310E0,9.744254158E0
7.514183330E-1,-1.480813742E0,2.203862667E0,9.354744911E0,9.724251763E0
7.539301040E-1,-1.432929754E0,2.189497471E0,9.359533310E0,9.718438693E0
7.564419270E-1,-1.418564558E0,2.165555477E0,9.369110107E0,9.720194449E0
7.589538020E-1,-1.389834046E0,2.127248287E0,9.364321709E0,9.702955478E0
7.614657290E-1,-1.389834046E0,2.088941097E0,9.359533310E0,9.690003992E0
7.639777080E-1,-1.385045648E0,2.069787264E0,9.369110107E0,9.694462077E0
7.664897390E-1,-1.385045648E0,2.026691675E0,9.354744911E0,9.671457126E0
7.690018750E-1,-1.399410844E0,1.993172884E0,9.326014519E0,9.638756956E0
7.715141140E-1,-1.394622445E0,1.945288897E0,9.273342133E0,9.577264482E0
7.740264580E-1,-1.399410844E0,1.897404790E0,9.172784805E0,9.470927976E0
7.765389580E-1,-1.418564558E0,1.859097600E0,9.120112419E0,9.415148423E0
7.790515620E-1,-1.442506552E0,1.844732404E0,9.043498039E0,9.341772828E0
7.815642710E-1,-1.447294950E0,1.801636815E0,8.947730064E0,9.241343582E0
7.840770830E-1,-1.461660147E0,1.801636815E0,8.851962090E0,9.150933200E0
7.865899480E-1,-1.490390539E0,1.777694821E0,8.837596893E0,9.136989750E0
7.891028120E-1,-1.533486247E0,1.792060018E0,8.847173691E0,9.156175047E0
7.916156770E-1,-1.552639842E0,1.782483220E0,8.890269279E0,9.199175222E0
7.941282290E-1,-1.581370234E0,1.782483220E0,9.009979248E0,9.319748081E0
7.966407290E-1,-1.629254222E0,1.782483220E0,9.124900818E0,9.439042890E0
7.991532290E-1,-1.567005038E0,1.796848416E0,9.287707329E0,9.588830817E0
8.016657290E-1,-1.557428241E0,1.777694821E0,9.479243279E0,9.769433696E0
8.041782290E-1,-1.557428241E0,1.820790410E0,9.450512886E0,9.749515591E0
8.066907290E-1,-1.600523829E0,1.825578809E0,9.531915665E0,9.836250848E0
8.092032290E-1,-1.662773132E0,1.863885999E0,9.541492462E0,9.863009881E0
8.117157810E-1,-1.710657120E0,1.849520802E0,9.551069260E0,9.877752729E0
8.142283850E-1,-1.792060018E0,1.892616391E0,9.560646057E0,9.909562500E0
8.167410410E-1,-1.897404790E0,1.897404790E0,9.579799652E0,9.948510001E0
8.192537500E-1,-1.935712099E0,1.892616391E0,9.627683640E0,1.000106346E1
8.217665100E-1,-1.978807688E0,1.897404790E0,9.689932823E0,1.007028415E1
8.242793230E-1,-1.997961283E0,1.897404790E0,9.747393608E0,1.012934728E1
8.267921870E-1,-2.012326479E0,1.887827992E0,9.828796387E0,1.020875070E1
8.293051040E-1,-2.017114878E0,1.854309201E0,9.914987564E0,1.028660262E1
8.318180730E-1,-2.017114878E0,1.806425214E0,9.967659950E0,1.032889972E1
8.343310410E-1,-1.969230890E0,1.825578809E0,1.005863953E1,1.041089993E1
8.368440100E-1,-1.897404790E0,1.854309201E0,1.012567711E1,1.046747078E1
8.393569790E-1,-1.825578809E0,1.839944005E0,1.016877270E1,1.049390633E1
8.418699480E-1,-1.739387512E0,1.830367208E0,1.020708084E1,1.051476164E1
8.443827600E-1,-1.691503525E0,1.854309201E0,1.018313885E1,1.048789605E1
8.468953120E-1,-1.653196216E0,1.863885999E0,1.014961910E1,1.045092803E1
8.494078640E-1,-1.605312228E0,1.835155606E0,1.011131191E1,1.040112744E1
8.519204160E-1,-1.590947032E0,1.830367208E0,1.007300472E1,1.036082915E1
8.544329680E-1,-1.595735431E0,1.839944005E0,9.986813545E0,1.027950438E1
8.569455210E-1,-1.624465823E0,1.878251195E0,9.905410767E0,1.021194787E1
8.594580730E-1,-1.648407817E0,1.897404790E0,9.819219589E0,1.013580123E1
8.619706250E-1,-1.667561531E0,1.921346903E0,9.752182007E0,1.007856087E1
8.644831770E-1,-1.677138329E0,1.916558504E0,9.694721222E0,1.002365248E1
8.669957810E-1,-1.677138329E0,1.902193308E0,9.661202431E0,9.988491616E0
8.695084370E-1,-1.629254222E0,1.816002011E0,9.670779228E0,9.973780803E0
8.720211460E-1,-1.567005038E0,1.763329506E0,9.656414032E0,9.940380661E0
8.745339060E-1,-1.543063045E0,1.816002011E0,9.613318443E0,9.904281819E0
8.770467180E-1,-1.552639842E0,1.902193308E0,9.584588051E0,9.894107234E0
8.795595830E-1,-1.605312228E0,2.021903276E0,9.522338867E0,9.866106512E0
8.820725000E-1,-1.677138329E0,2.122459888E0,9.450512886E0,9.830046936E0
8.845854160E-1,-1.782483220E0,2.318784237E0,9.349956512E0,9.796718509E0
8.870983330E-1,-1.897404790E0,2.476801634E0,9.225458145E0,9.738776579E0
8.896112500E-1,-2.002749681E0,2.634819031E0,9.100958824E0,9.684045081E0
8.921239580E-1,-2.117671490E0,2.778470993E0,9.009979248E0,9.663547984E0
8.946366660E-1,-2.218227863E0,2.907757998E0,8.928576469E0,9.648578610E0
8.971493750E-1,-2.299630642E0,3.022679567E0,8.851962090E0,9.632347880E0
8.996620830E-1,-2.376245260E0,3.084928989E0,8.823231697E0,9.644311587E0
9.021747910E-1,-2.419340849E0,3.132812977E0,8.794501305E0,9.644220056E0
9.046875000E-1,-2.409764051E0,3.156754971E0,8.813654900E0,9.667087329E0
9.072002080E-1,-2.404975653E0,3.156754971E0,8.828020096E0,9.678995229E0
9.097129680E-1,-2.385822058E0,3.123236179E0,8.842385292E0,9.676493620E0
9.122257810E-1,-2.366668463E0,3.084928989E0,8.890269279E0,9.703339340E0
9.147386460E-1,-2.318784237E0,3.032256365E0,8.947730064E0,9.727960336E0
9.172515620E-1,-2.261323452E0,2.989160776E0,8.990825653E0,9.740821928E0
9.197645310E-1,-2.199074268E0,2.931699991E0,9.067440033E0,9.780044030E0
9.222775520E-1,-2.155978680E0,2.845508814E0,9.163208008E0,9.834101152E0
9.247906250E-1,-2.108094692E0,2.749740601E0,9.215881348E0,9.845689697E0
9.273037500E-1,-2.098517895E0,2.701856613E0,9.282918930E0,9.893249738E0
9.298169270E-1,-2.117671490E0,2.625242233E0,9.297284126E0,9.890193196E0
9.323301040E-1,-2.079364061E0,2.582146645E0,9.359533310E0,9.929355466E0
9.348432810E-1,-2.055422068E0,2.596511841E0,9.412205696E0,9.977787815E0
9.373559890E-1,-2.050633669E0,2.625242233E0,9.402628899E0,9.975290744E0
9.398686980E-1,-2.031480074E0,2.658761024E0,9.393052101E0,9.971226066E0
9.423814060E-1,-1.988384485E0,2.701856613E0,9.359533310E0,9.942563341E0
9.448941140E-1,-1.930923700E0,2.764105797E0,9.268553734E0,9.862800592E0
9.474068230E-1,-1.801636815E0,2.835932016E0,9.316437721E0,9.903757743E0
9.499195310E-1,-1.715445518E0,2.855085611E0,9.493608475E0,1.006095766E1
9.524322390E-1,-1.729810715E0,2.907757998E0,9.416994095E0,1.000635196E1
9.549443750E-1,-1.744175911E0,2.907757998E0,9.402628899E0,9.995330729E0
9.574561460E-1,-1.782483220E0,2.864662409E0,9.416994095E0,1.000316525E1
9.599679160E-1,-1.782483220E0,2.831143618E0,9.412205696E0,9.989105900E0
9.624796870E-1,-1.772906303E0,2.811989784E0,9.412205696E0,9.981988748E0
9.649914580E-1,-1.710657120E0,2.768894196E0,9.440936089E0,9.986210346E0
9.675032290E-1,-1.787271619E0,2.730587006E0,9.407417297E0,9.957406562E0
9.700150000E-1,-1.825578809E0,2.687491417E0,9.393052101E0,9.939053067E0
9.725268230E-1,-1.883039594E0,2.649184227E0,9.364321709E0,9.912342621E0
9.750387500E-1,-1.911770105E0,2.615665436E0,9.378686905E0,9.922516751E0
9.775508330E-1,-1.911770105E0,2.625242233E0,9.412205696E0,9.956725254E0
9.800630730E-1,-1.892616391E0,2.634819031E0,9.426570892E0,9.969177846E0
9.825755210E-1,-1.830367208E0,2.668337822E0,9.421782494E0,9.961940383E0
9.850881770E-1,-1.499967337E0,2.730587006E0,9.450512886E0,9.950788975E0
9.876010410E-1,-1.375468850E0,2.840720415E0,9.393052101E0,9.909138954E0
9.901141140E-1,-1.385045648E0,2.960430384E0,9.330802917E0,9.886677025E0
9.926273960E-1,-1.365892053E0,3.070563793E0,9.273342133E0,9.863513442E0
9.951408330E-1,-1.332373261E0,3.137601376E0,9.220669746E0,9.830590596E0
9.976543750E-1,-1.380257249E0,3.195062160E0,9.211092949E0,9.846713441E0
1.000167968E0,-1.408987641E0,3.204638958E0,9.220669746E0,9.862844802E0
1.002681562E0,-1.370680451E0,3.060986757E0,9.206304550E0,9.798185970E0
1.005195156E0,-1.270123959E0,2.792836189E0,9.211092949E0,9.708624113E0
1.007708229E0,-1.303642869E0,2.749740601E0,9.148842812E0,9.641674278E0
1.010221198E0,-1.341950059E0,2.730587006E0,8.995614052E0,9.496210166E0
1.012734062E0,-1.370680451E0,2.749740601E0,8.895057678E0,9.410732669E0
1.015246927E0,-1.385045648E0,2.811989784E0,8.789712906E0,9.331917861E0
1.017759791E0,-1.394622445E0,2.893392801E0,8.713098526E0,9.286268335E0
1.020272500E0,-1.413776159E0,2.984372377E0,8.650849342E0,9.259721155E0
1.022785208E0,-1.461660147E0,3.075352192E0,8.622118950E0,9.270122797E0
1.025297916E0,-1.499967337E0,3.161543369E0,8.646060944E0,9.327359129E0
1.027810625E0,-1.523909330E0,3.223792553E0,8.746617317E0,9.445551999E0
1.030323385E0,-1.595735431E0,3.228580952E0,9.158419609E0,9.841074955E0
1.032836198E0,-1.638831019E0,3.276464939E0,9.148842812E0,9.855065418E0
1.035349062E0,-1.672349930E0,3.367444754E0,9.091382027E0,9.838173896E0
1.037861979E0,-1.720233917E0,3.386598349E0,9.086593628E0,9.848575372E0
1.040374948E0,-1.686715126E0,3.329137564E0,9.120112419E0,9.854167411E0
1.042887968E0,-1.634042621E0,3.257311344E0,9.153631210E0,9.852367067E0
1.045400989E0,-1.610100627E0,3.161543369E0,9.225458145E0,9.884172120E0
1.047914010E0,-1.605312228E0,3.056198359E0,9.297284126E0,9.917503107E0
1.050427031E0,-1.624465823E0,2.960430384E0,9.416994095E0,1.000413990E1
1.052940052E0,-1.619677424E0,2.835932016E0,9.531915665E0,1.007587622E1
1.055453073E0,-1.634042621E0,2.701856613E0,9.627683640E0,1.013224638E1
1.057966093E0,-1.624465823E0,2.553416014E0,9.742605209E0,1.020182233E1
1.060479114E0,-1.610100627E0,2.452859640E0,9.776124001E0,1.020693612E1
1.062992135E0,-1.634042621E0,2.361880064E0,9.819219589E0,1.023062296E1
1.065505156E0,-1.681926727E0,2.299630642E0,9.809642792E0,1.021500222E1
1.068018125E0,-1.734599113E0,2.270900249E0,9.828796387E0,1.023577356E1
1.070530937E0,-1.744175911E0,2.251746655E0,9.847949982E0,1.025156727E1
1.073043750E0,-1.792060018E0,2.218227863E0,9.819219589E0,1.022492481E1
1.075556562E0,-1.839944005E0,2.223016262E0,9.776124001E0,1.019312492E1
1.078069375E0,-1.911770105E0,2.227804661E0,9.723451614E0,1.015694294E1
1.080582187E0,-2.045845270E0,2.242169857E0,9.675567627E0,1.014048408E1
1.083095000E0,-2.064998865E0,2.256535053E0,9.637260437E0,1.011103157E1
1.085607812E0,-2.036268473E0,2.328361034E0,9.622895241E0,1.010780724E1
1.088120625E0,-1.969230890E0,2.404975653E0,9.584588051E0,1.007601639E1
1.090633177E0,-1.930923700E0,2.519897223E0,9.551069260E0,1.006485332E1
1.093145729E0,-1.868674397E0,2.634819031E0,9.484031677E0,1.001903549E1
1.095658281E0,-1.811213613E0,2.768894196E0,9.436147690E0,9.999407634E0
1.098170833E0,-1.720233917E0,2.902969599E0,9.402628899E0,9.989788157E0
1.100683437E0,-1.605312228E0,3.013102770E0,9.397840500E0,9.998761009E0
1.103196093E0,-1.495178938E0,3.123236179E0,9.393052101E0,1.001097358E1
1.105708802E0,-1.370680451E0,3.185485363E0,9.321226120E0,9.945417954E0
1.108221510E0,-1.270123959E0,3.219004154E0,9.230246544E0,9.857619077E0
1.110734271E0,-1.169567585E0,3.233369350E0,9.177573204E0,9.800531394E0
1.113247083E0,-1.073799491E0,3.252522945E0,9.115324020E0,9.737611763E0
1.115759948E0,-9.876081944E-1,3.247734547E0,9.105747223E0,9.717910378E0
1.118272864E0,-9.062053561E-1,3.166331768E0,9.091382027E0,9.669544569E0
1.120785833E0,-8.487445116E-1,3.046621561E0,9.024344444E0,9.562482043E0
1.123298802E0,-7.386112213E-1,2.893392801E0,9.014767647E0,9.496489044E0
1.125811771E0,-6.763619781E-1,2.831143618E0,9.172784805E0,9.623555517E0
1.128324739E0,-6.524199843E-1,2.773682594E0,9.273342133E0,9.701228854E0
1.130837708E0,-6.284779310E-1,2.735375404E0,9.244611740E0,9.661268516E0
1.133350677E0,-6.236895323E-1,2.706645012E0,9.182361603E0,9.593262243E0
1.135863646E0,-6.380547285E-1,2.697068214E0,9.153631210E0,9.564008319E0
1.138376614E0,-6.667851806E-1,2.725798607E0,9.096170425E0,9.519185728E0
1.140889583E0,-6.955155730E-1,2.759317398E0,9.033921242E0,9.471499745E0
1.143402552E0,-7.433996201E-1,2.797624588E0,9.048286438E0,9.500043884E0
1.145915521E0,-7.673416734E-1,2.835932016E0,9.024344444E0,9.490527714E0
1.148428489E0,-8.200140595E-1,2.859874010E0,9.000402451E0,9.479374804E0
1.150941406E0,-8.439561129E-1,2.869450808E0,9.120112419E0,9.598044613E0
1.153454323E0,-8.870517015E-1,2.888604403E0,9.134477615E0,9.621308509E0
1.155967187E0,-9.253589511E-1,2.888604403E0,9.134477615E0,9.624915890E0
1.158480052E0,-9.588778019E-1,2.883816004E0,9.139266014E0,9.631304411E0
1.160992916E0,-9.923965931E-1,2.946065187E0,9.057863235E0,9.576483565E0
1.163505781E0,-1.006761789E0,2.970007181E0,9.038709641E0,9.567276724E0
1.166018646E0,-1.011550188E0,2.989160776E0,9.033921242E0,9.569224051E0
1.168531510E0,-1.025915384E0,3.027467966E0,9.009979248E0,9.560219177E0
1.171044375E0,-1.092953086E0,2.998737574E0,8.938153267E0,9.490919729E0
1.173557239E0,-1.227028370E0,2.888604403E0,8.909422874E0,9.446028264E0
1.176070104E0,-1.308431268E0,2.965218782E0,8.976460457E0,9.543655334E0
1.178582968E0,-1.231816769E0,3.089717388E0,9.053074837E0,9.644785642E0
1.181095729E0,-1.054645896E0,3.161543369E0,9.014767647E0,9.611122212E0
1.183608437E0,-9.205705523E-1,3.204638958E0,8.847173691E0,9.454609633E0
1.186121093E0,-8.200140595E-1,3.228580952E0,8.631695747E0,9.252152695E0
1.188633750E0,-7.386112213E-1,3.247734547E0,8.492832184E0,9.122583227E0
1.191146406E0,-6.955155730E-1,3.329137564E0,8.363545418E0,9.028609571E0
1.193659062E0,-6.907271743E-1,3.482366323E0,8.306084633E0,9.032996245E0
1.196171718E0,-6.284779310E-1,3.496731520E0,8.229470253E0,8.963609567E0
1.198684375E0,-5.183446407E-1,3.429693937E0,8.176796913E0,8.882088123E0
1.201197031E0,-3.938461840E-1,3.377021551E0,8.157643318E0,8.837790102E0
1.203709687E0,-2.454056740E-1,3.348291159E0,8.172008514E0,8.834760936E0
1.206222343E0,-1.496376097E-1,3.357867956E0,8.205527306E0,8.867262655E0
1.208735000E0,-1.065419763E-1,3.415328741E0,8.248623848E0,8.928360263E0
1.211247708E0,-5.865794048E-2,3.381809950E0,8.262989044E0,8.928441479E0
1.213760468E0,-1.077390742E-2,3.271676540E0,8.267777443E0,8.891576199E0
1.216273281E0,5.147533491E-2,3.161543369E0,8.200738907E0,8.789205016E0
1.218786146E0,8.020575345E-2,3.094505787E0,8.186373711E0,8.752091953E0
1.221299062E0,8.499415964E-2,3.056198359E0,8.195950508E0,8.747638375E0
1.223811979E0,1.041477770E-1,3.037044764E0,8.210315704E0,8.754642861E0
1.226324896E0,1.233013868E-1,3.013102770E0,8.210315704E0,8.746615088E0
1.228837812E0,9.457096457E-2,3.013102770E0,8.234258652E0,8.768736939E0
1.231350521E0,6.105214357E-2,3.070563793E0,8.282142639E0,8.833231349E0
1.233863177E0,-1.197100850E-3,3.123236179E0,8.286931038E0,8.855948944E0
1.236375625E0,-4.908113554E-2,3.199850559E0,8.315661430E0,8.910200760E0
1.238888073E0,-3.950432688E-2,3.290830135E0,8.344391823E0,8.969949747E0
1.241400521E0,3.591302549E-3,3.353079557E0,8.392275810E0,9.037336371E0
1.243912968E0,7.541735470E-2,3.396175146E0,8.430583000E0,9.089247665E0
1.246425416E0,1.280897856E-1,3.391386747E0,8.502408981E0,9.154718431E0
1.248937864E0,1.663970202E-1,3.324349165E0,8.588600159E0,9.211028066E0
1.251450312E0,1.999158412E-1,3.262099743E0,8.631695747E0,9.229703817E0
1.253962760E0,2.573766708E-1,3.219004154E0,8.684368134E0,9.265337575E0
1.256475208E0,3.292027414E-1,3.151966572E0,8.746617317E0,9.303041557E0
1.258987656E0,3.866635859E-1,3.003525972E0,8.914211273E0,9.414554669E0
1.261500104E0,3.531447649E-1,2.692279816E0,9.321226120E0,9.708673350E0
1.264012552E0,3.148375154E-1,2.582146645E0,9.167996407E0,9.529887831E0
1.266525000E0,3.292027414E-1,2.529474020E0,9.110535622E0,9.460891743E0
1.269037448E0,4.153940082E-1,2.462436438E0,9.129689217E0,9.465060517E0
1.271549896E0,5.494692922E-1,2.376245260E0,9.268553734E0,9.584077752E0
1.274062343E0,6.548141837E-1,2.313995838E0,9.445724487E0,9.747054398E0
1.276574791E0,7.266402245E-1,2.242169857E0,9.598953247E0,9.884090000E0
1.279087239E0,7.793126702E-1,2.203862667E0,9.742605209E0,1.001911649E1
1.281599687E0,8.319851160E-1,2.179920673E0,9.881468773E0,1.015321026E1
1.284112135E0,8.750807047E-1,2.127248287E0,1.003469753E1,1.029495537E1
1.286624583E0,9.229647517E-1,2.098517895E0,1.022144604E1,1.047538068E1
1.289137031E0,9.660604000E-1,2.079364061E0,1.043692398E1,1.068580412E1
1.291649479E0,9.133879542E-1,2.055422068E0,1.065240192E1,1.088727258E1
1.294161979E0,7.697358727E-1,1.988384485E0,1.078168869E1,1.099049486E1
1.296674479E0,6.883329749E-1,2.007538080E0,1.088224506E1,1.108725706E1
1.299186979E0,7.266402245E-1,2.060210466E0,1.112166500E1,1.133419188E1
1.301699479E0,7.601590157E-1,2.112883091E0,1.148558426E1,1.170302365E1
1.304211979E0,7.362170219E-1,2.155978680E0,1.173936939E1,1.195838841E1
1.306724479E0,6.691793799E-1,2.179920673E0,1.190217495E1,1.211864777E1
1.309236771E0,5.494692922E-1,2.218227863E0,1.200751972E1,1.222305122E1
1.311748958E0,3.675099611E-1,2.208651066E0,1.207934570E1,1.228510463E1
1.314261041E0,1.568202078E-1,2.160767078E0,1.202188492E1,1.221553208E1
1.316773125E0,3.591302549E-3,2.223016262E0,1.174894619E1,1.195740569E1
1.319285260E0,-5.386953801E-2,2.318784237E0,1.155741024E1,1.178784941E1
1.321797448E0,-5.386953801E-2,2.357091665E0,1.143770027E1,1.167817497E1
1.324309687E0,-4.429273307E-2,2.333149672E0,1.123179913E1,1.147165467E1
1.326821979E0,-2.992752194E-2,2.371456861E0,1.112645340E1,1.137640842E1
1.329334375E0,-2.992752194E-2,2.376245260E0,1.102110863E1,1.127440786E1
1.331846875E0,3.591302549E-3,2.381033659E0,1.089182186E1,1.114904111E1
1.334359479E0,3.711012751E-2,2.294842243E0,1.072422791E1,1.096707537E1
1.336872187E0,1.041477770E-1,2.184709072E0,1.055184555E1,1.077614240E1
1.339385000E0,1.951274425E-1,2.146401882E0,1.036988640E1,1.059148996E1
1.341897916E0,2.717418969E-1,2.103306293E0,1.022144604E1,1.043914269E1
1.344410937E0,3.196259141E-1,2.031480074E0,1.014483070E1,1.035116718E1
1.346924062E0,3.914519846E-1,2.007538080E0,1.001554394E1,1.022225827E1
1.349437291E0,4.441244006E-1,2.007538080E0,9.914987564E0,1.012592880E1
1.351950573E0,5.015852451E-1,2.012326479E0,9.814431190E0,1.003115672E1
1.354463906E0,5.542576909E-1,2.069787264E0,9.752182007E0,9.984802191E0
1.356977239E0,5.877765417E-1,2.084152699E0,9.694721222E0,9.933619346E0
1.359490573E0,5.877765417E-1,2.132036686E0,9.651625633E0,9.901764442E0
1.362003333E0,5.781996846E-1,2.175132275E0,9.603741646E0,9.863942867E0
1.364515625E0,5.781996846E-1,2.242169857E0,9.570222855E0,9.846360040E0
1.367027916E0,5.973533392E-1,2.299630642E0,9.560646057E0,9.851450915E0
1.369540208E0,6.404489279E-1,2.352303267E0,9.551069260E0,9.857303358E0
1.372052500E0,6.691793799E-1,2.371456861E0,9.546280861E0,9.859162589E0
1.374564843E0,7.170634270E-1,2.381033659E0,9.536704063E0,9.855568255E0
1.377077239E0,7.697358727E-1,2.419340849E0,9.498396873E0,9.831848586E0
1.379589739E0,8.367735147E-1,2.443282843E0,9.474454880E0,9.820138300E0
1.382102343E0,8.942343593E-1,2.472013235E0,9.479243279E0,9.836999423E0
1.384615052E0,9.516952038E-1,2.462436438E0,9.488820076E0,9.849214355E0
1.387127864E0,9.612720013E-1,2.400187254E0,9.464878082E0,9.811669574E0
1.389640781E0,9.708487988E-1,2.352303267E0,9.460089684E0,9.796385806E0
1.392153750E0,9.708487988E-1,2.261323452E0,9.455301285E0,9.770304680E0
1.394666771E0,9.373299479E-1,2.175132275E0,9.445724487E0,9.738146586E0
1.397179791E0,8.942343593E-1,2.074575663E0,9.426570892E0,9.693490499E0
1.399692812E0,8.463503122E-1,1.983596087E0,9.416994095E0,9.660783616E0
1.402205833E0,7.841010690E-1,1.926135302E0,9.402628899E0,9.629861987E0
1.404718854E0,7.218518257E-1,1.849520802E0,9.393052101E0,9.600584619E0
1.407231875E0,6.787561774E-1,1.811213613E0,9.378686905E0,9.576062487E0
1.409744687E0,6.500257850E-1,1.777694821E0,9.388263702E0,9.577172221E0
1.412257500E0,5.159504414E-1,1.758541107E0,9.397840500E0,9.574866983E0
1.414770312E0,4.776432514E-1,1.720233917E0,9.426570892E0,9.594143349E0
1.417283125E0,4.537012279E-1,1.691503525E0,9.488820076E0,9.649079511E0
1.419795937E0,4.537012279E-1,1.643619418E0,9.498396873E0,9.650226565E0
1.422308750E0,4.489128292E-1,1.624465823E0,9.575011253E0,9.722204094E0
1.424821562E0,4.345476031E-1,1.638831019E0,9.646837234E0,9.794695879E0
1.427334375E0,3.962403834E-1,1.629254222E0,9.670779228E0,9.815062233E0
1.429847187E0,3.627215624E-1,1.610100627E0,9.689932823E0,9.829485698E0
1.432360000E0,3.387795389E-1,1.634042621E0,9.723451614E0,9.865615954E0
1.434872812E0,3.244143426E-1,1.657984734E0,9.742605209E0,9.887998499E0
1.437385625E0,3.339911401E-1,1.677138329E0,9.761758804E0,9.910412605E0
1.439898437E0,3.962403834E-1,1.677138329E0,9.771335602E0,9.922136809E0
1.442411302E0,3.818751574E-1,1.696291924E0,9.771335602E0,9.924829186E0
1.444924166E0,3.866635859E-1,1.696291924E0,9.771335602E0,9.925014582E0
1.447437031E0,4.153940082E-1,1.624465823E0,9.733028412E0,9.876400329E0
1.449949896E0,3.339911401E-1,1.428141356E0,9.531915665E0,9.644094258E0
1.452462760E0,3.531447649E-1,1.456871748E0,9.531915665E0,9.649072637E0
1.454975625E0,5.303156972E-1,1.490390539E0,9.828796387E0,9.955286892E0
1.457488489E0,6.931213737E-1,1.523909330E0,9.953294754E0,1.009310623E1
1.460001406E0,7.649474144E-1,1.581370234E0,9.986813545E0,1.014013418E1
1.462514323E0,7.553706169E-1,1.614889026E0,9.972448349E0,1.013055662E1
1.465027291E0,7.218518257E-1,1.657984734E0,9.924564362E0,1.008796120E1
1.467540312E0,6.021417379E-1,1.734599113E0,9.852738380E0,1.002236810E1
1.470053385E0,4.967968464E-1,1.734599113E0,9.776124001E0,9.941239443E0
1.472566510E0,4.393360019E-1,1.739387512E0,9.685144424E0,9.849898861E0
1.475079635E0,3.770867586E-1,1.744175911E0,9.637260437E0,9.801078143E0
1.477592760E0,3.914519846E-1,1.768117905E0,9.704298019E0,9.871822305E0
1.480105885E0,4.824316502E-1,1.748964310E0,9.852738380E0,1.001838660E1
1.482619010E0,5.829881430E-1,1.734599113E0,9.958083153E0,1.012482737E1
1.485132135E0,6.069301367E-1,1.720233917E0,1.002512074E1,1.018973084E1
1.487645208E0,6.260837317E-1,1.710657120E0,1.005863953E1,1.022225796E1
1.490158281E0,6.500257850E-1,1.677138329E0,1.012088871E1,1.027948028E1
1.492671146E0,7.122750282E-1,1.619677424E0,1.014961910E1,1.030269181E1
1.495183958E0,7.793126702E-1,1.557428241E0,1.016877270E1,1.031682360E1
1.497696771E0,8.176198602E-1,1.571793437E0,1.023102283E1,1.038329741E1
1.500209583E0,8.415619135E-1,1.552639842E0,1.028369522E1,1.043423712E1
1.502722396E0,8.702923059E-1,1.576581836E0,1.026933002E1,1.042603271E1
1.505235208E0,9.038111567E-1,1.581370234E0,1.025975323E1,1.042017959E1
1.507748021E0,9.660604000E-1,1.514332533E0,1.017356110E1,1.033091579E1
1.510260677E0,1.023521185E0,1.552639842E0,1.014961910E1,1.031857810E1
1.512772864E0,1.052251697E0,1.629254222E0,1.013046551E1,1.031445754E1
1.515285052E0,1.066616893E0,1.691503525E0,1.008736992E1,1.028367092E1
1.517797239E0,1.071405292E0,1.758541107E0,1.005863953E1,1.026725890E1
1.520309427E0,1.104924083E0,1.725022316E0,9.986813545E0,1.019475375E1
1.522821614E0,1.109712481E0,1.758541107E0,9.919775963E0,1.013537783E1
1.525333802E0,1.100135684E0,1.849520802E0,9.814431190E0,1.004759102E1
1.527845989E0,1.076193690E0,1.892616391E0,9.752182007E0,9.992259182E0
1.530358177E0,1.047463298E0,1.935712099E0,9.699509621E0,9.946087048E0
1.532870364E0,1.047463298E0,1.911770105E0,9.646837234E0,9.890071432E0
1.535382552E0,1.085770488E0,1.816002011E0,9.555857658E0,9.787296687E0
1.537894739E0,1.076193690E0,1.835155606E0,9.498396873E0,9.733731665E0
1.540406927E0,1.028309584E0,1.863885999E0,9.469666481E0,9.705981397E0
1.542919114E0,9.756371975E-1,1.849520802E0,9.450512886E0,9.679090296E0
1.545431302E0,9.229647517E-1,1.839944005E0,9.450512886E0,9.672096551E0
1.547943489E0,8.655039072E-1,1.816002011E0,9.421782494E0,9.634155161E0
1.550455677E0,8.176198602E-1,1.748964310E0,9.373898506E0,9.570650532E0
1.552967864E0,7.936778665E-1,1.686715126E0,9.258976936E0,9.444765025E0
1.555480104E0,7.362170219E-1,1.715445518E0,9.196727753E0,9.384272491E0
1.557992396E0,6.643909812E-1,1.701080322E0,9.177573204E0,9.357507123E0
1.560504739E0,6.404489279E-1,1.681926727E0,9.177573204E0,9.352374151E0
1.563017135E0,6.212953329E-1,1.681926727E0,9.167996407E0,9.341683120E0
1.565529583E0,5.877765417E-1,1.701080322E0,9.134477615E0,9.310093277E0
1.568042083E0,6.117185354E-1,1.662773132E0,9.115324020E0,9.285911159E0
1.570554635E0,6.165069342E-1,1.605312228E0,9.057863235E0,9.219652626E0
1.573067187E0,5.925649405E-1,1.667561531E0,9.077016830E0,9.247925671E0
1.575579739E0,5.590460896E-1,1.710657120E0,9.072228432E0,9.249011246E0
1.578092291E0,5.207388401E-1,1.763329506E0,9.115324020E0,9.298904875E0
1.580604843E0,4.728548229E-1,1.792060018E0,9.148842812E0,9.334687760E0
1.583117396E0,4.249708056E-1,1.816002011E0,9.177573204E0,9.365164889E0
1.585629948E0,4.058171809E-1,1.772906303E0,9.215881348E0,9.393633661E0
1.588142396E0,4.058171809E-1,1.734599113E0,9.273342133E0,9.442901883E0
1.590654427E0,3.770867586E-1,1.777694821E0,9.388263702E0,9.562525223E0
1.593166458E0,3.722983599E-1,1.782483220E0,9.507973671E0,9.680775580E0
1.595678489E0,3.339911401E-1,1.777694821E0,9.622895241E0,9.791417761E0
1.598190521E0,3.052607179E-1,1.777694821E0,9.713874817E0,9.879916343E0
1.600702552E0,3.100491166E-1,1.777694821E0,9.809642792E0,9.974237867E0
1.603214583E0,3.004723191E-1,1.768117905E0,9.905410767E0,1.006646348E1
1.605726614E0,3.196259141E-1,1.782483220E0,1.000596714E1,1.016851934E1
1.608238646E0,2.908954918E-1,1.777694821E0,1.010173512E1,1.026108529E1
1.610750677E0,2.813186944E-1,1.768117905E0,1.019271564E1,1.034875999E1
1.613262760E0,2.861070931E-1,1.748964310E0,1.028848362E1,1.044000137E1
1.615774896E0,3.100491166E-1,1.672349930E0,1.036509800E1,1.050372035E1
1.618287083E0,3.052607179E-1,1.720233917E0,1.047523117E1,1.061992735E1
1.620799323E0,3.052607179E-1,1.787271619E0,1.059015274E1,1.074424772E1
1.623311614E0,3.100491166E-1,1.835155606E0,1.067634392E1,1.083735420E1
1.625824010E0,3.100491166E-1,1.892616391E0,1.073859310E1,1.090850627E1
1.628336510E0,3.148375154E-1,1.940500498E0,1.077211189E1,1.095002555E1
1.630849114E0,3.387795389E-1,1.974019289E0,1.074338150E1,1.092848433E1
1.633361771E0,4.297592044E-1,1.959654093E0,1.070986271E1,1.089615053E1
1.635874479E0,4.680664241E-1,2.017114878E0,1.070028591E1,1.089880531E1
1.638387239E0,5.159504414E-1,2.060210466E0,1.065719032E1,1.086675562E1
1.640900052E0,5.111620426E-1,2.088941097E0,1.058536434E1,1.080161561E1
1.643412916E0,5.159504414E-1,2.098517895E0,1.049438477E1,1.071457390E1
1.645925833E0,5.159504414E-1,2.136825085E0,1.037946320E1,1.060968814E1
1.648438750E0,5.351040959E-1,2.112883091E0,1.021665764E1,1.044656425E1
1.650951666E0,5.351040959E-1,2.069787264E0,1.003948593E1,1.026458151E1
1.653464583E0,5.159504414E-1,2.103306293E0,9.900622368E0,1.013471388E1
1.655977187E0,4.872200489E-1,2.136825085E0,9.766547203E0,1.000943800E1
1.658489791E0,4.680664241E-1,2.170343876E0,9.603741646E0,9.857044806E0
1.661002343E0,5.111620426E-1,2.246958256E0,9.445724487E0,9.722747509E0
1.663514896E0,5.351040959E-1,2.232593060E0,9.230246544E0,9.511480401E0
1.666027448E0,5.159504414E-1,2.232593060E0,9.043498039E0,9.329283650E0
1.668540000E0,4.776432514E-1,2.270900249E0,8.871115685E0,9.169614196E0
1.671052552E0,5.111620426E-1,2.170343876E0,8.626907349E0,8.910398957E0
1.673565104E0,5.446808934E-1,2.021903276E0,8.397064209E0,8.654216167E0
1.676077656E0,5.303156972E-1,2.146401882E0,8.377910614E0,8.664736697E0
1.678590208E0,5.255272985E-1,2.323572636E0,8.363545418E0,8.696209559E0
1.681102760E0,5.111620426E-1,2.486378431E0,8.349180222E0,8.726521341E0
1.683615312E0,4.776432514E-1,2.610877037E0,8.334815025E0,8.747226045E0
1.686127864E0,4.106055796E-1,2.725798607E0,8.306084633E0,8.751549401E0
1.688640416E0,3.818751574E-1,2.816778183E0,8.267777443E0,8.742780554E0
1.691152968E0,4.153940082E-1,2.831143618E0,8.176796913E0,8.663021074E0
1.693665573E0,4.680664241E-1,2.802412987E0,8.109759331E0,8.593067039E0
1.696178229E0,5.781996846E-1,2.630030632E0,7.985261440E0,8.427085871E0
1.698690937E0,6.548141837E-1,2.639607430E0,7.975684643E0,8.426615840E0
1.701203698E0,7.122750282E-1,2.692279816E0,7.966107368E0,8.438872728E0
1.703716510E0,7.793126702E-1,2.725798607E0,7.970896244E0,8.460052790E0
1.706229375E0,8.176198602E-1,2.735375404E0,7.966107368E0,8.462248368E0
1.708742239E0,8.415619135E-1,2.711433411E0,7.970896244E0,8.461399679E0
1.711255104E0,8.415619135E-1,2.735375404E0,7.923011780E0,8.424050138E0
1.713767968E0,8.607155085E-1,2.749740601E0,7.894281387E0,8.403664866E0
1.716280833E0,8.655039072E-1,2.788047791E0,7.884704590E0,8.407786508E0
1.718793698E0,8.655039072E-1,2.807201385E0,7.879916191E0,8.409670375E0
1.721306562E0,8.559271097E-1,2.797624588E0,7.903858185E0,8.427946889E0
1.723819427E0,8.846575022E-1,2.701856613E0,7.889492989E0,8.386104440E0
1.726332291E0,8.655039072E-1,2.764105797E0,7.918223381E0,8.431348610E0
1.728845208E0,8.271966577E-1,2.869450808E0,7.985261440E0,8.525397499E0
1.731358177E0,7.505822182E-1,2.931699991E0,8.081028938E0,8.629094229E0
1.733871198E0,6.260837317E-1,2.888604403E0,8.215105057E0,8.730633845E0
1.736384271E0,5.542576909E-1,2.960430384E0,8.425794601E0,8.947925140E0
1.738897343E0,4.824316502E-1,3.041833162E0,8.713098526E0,9.241405478E0
1.741410416E0,4.249708056E-1,3.132812977E0,8.990825653E0,9.530480746E0
1.743923489E0,4.728548229E-1,3.094505787E0,9.158419609E0,9.678646986E0
1.746436562E0,4.776432514E-1,3.080140591E0,9.172784805E0,9.687899164E0
1.748949635E0,4.967968464E-1,3.108870983E0,9.057863235E0,9.589409382E0
1.751462396E0,5.111620426E-1,3.108870983E0,8.957306862E0,9.495246792E0
1.753975052E0,4.728548229E-1,3.137601376E0,8.856750488E0,9.407984018E0
1.756487708E0,3.866635859E-1,3.099294186E0,8.674791336E0,9.219931556E0
1.759000364E0,3.483563364E-1,3.075352192E0,8.483255386E0,9.030214017E0
1.761513021E0,3.339911401E-1,3.046621561E0,8.401852608E0,8.943409879E0
1.764025677E0,3.435679376E-1,3.008314371E0,8.397064209E0,8.926291594E0
1.766538333E0,3.627215624E-1,2.931699991E0,8.430583000E0,8.933149584E0
1.769050989E0,3.962403834E-1,2.898181200E0,8.392275810E0,8.887449240E0
1.771563646E0,4.010287821E-1,2.869450808E0,8.344391823E0,8.833088187E0
1.774076302E0,3.387795389E-1,2.788047791E0,8.018779755E0,8.496399874E0
1.776588958E0,2.956839204E-1,2.725798607E0,7.501632690E0,7.986983163E0
1.779101614E0,3.675099611E-1,2.730587006E0,7.204751492E0,7.713599226E0
1.781614271E0,4.537012279E-1,2.754528999E0,7.281365871E0,7.798176951E0
1.784126718E0,5.063736439E-1,2.749740601E0,7.506421089E0,8.010233780E0
1.786639062E0,4.824316502E-1,2.754528999E0,7.712322235E0,8.203662875E0
1.789151302E0,4.010287821E-1,2.797624588E0,7.836820602E0,8.330863375E0
1.791663541E0,3.052607179E-1,2.859874010E0,7.932588577E0,8.437892213E0
1.794175833E0,2.238578647E-1,2.926911592E0,8.004414558E0,8.525700923E0
1.796688177E0,1.616086215E-1,2.984372377E0,8.033144951E0,8.571115075E0
1.799200625E0,7.541735470E-2,2.922123194E0,7.832032204E0,8.359738045E0
1.801713177E0,-3.471592441E-2,2.835932016E0,7.616554260E0,8.127460513E0
1.804225833E0,-1.448491961E-1,2.706645012E0,7.487267494E0,7.962793671E0
1.806738593E0,-1.783680320E-1,2.630030632E0,7.611765862E0,8.055299859E0
1.809251458E0,-1.735796183E-1,2.582146645E0,7.966107368E0,8.375946381E0
1.811764427E0,-2.023100406E-1,2.567781210E0,8.286931038E0,8.677998371E0
1.814277448E0,-2.597708702E-1,2.414552450E0,8.416217804E0,8.759581415E0
1.816790521E0,-2.645592988E-1,2.404975653E0,8.397064209E0,8.738683359E0
1.819303593E0,-2.645592988E-1,2.543839216E0,8.602965355E0,8.975083425E0
1.821815729E0,-2.741360962E-1,2.673126221E0,8.751405716E0,9.154663096E0
1.824327448E0,-2.597708702E-1,2.816778183E0,8.713098526E0,9.160775413E0
1.826839166E0,-2.310404629E-1,2.974795580E0,8.746617317E0,9.241542238E0
1.829350885E0,-2.214636505E-1,3.123236179E0,8.832808495E0,9.371347624E0
1.831862604E0,-2.789244950E-1,3.276464939E0,8.899846077E0,9.487901853E0
1.834374323E0,-3.746925592E-1,3.391386747E0,8.986037254E0,9.612011450E0
1.836886041E0,-4.225766063E-1,3.396175146E0,9.048286438E0,9.673885676E0
1.839397812E0,-4.177882075E-1,3.348291159E0,9.100958824E0,9.706340824E0
1.841909635E0,-3.842693865E-1,3.343502760E0,9.115324020E0,9.716779593E0
1.844421510E0,-2.885012925E-1,3.367444754E0,9.144054413E0,9.748674180E0
1.846933437E0,-2.406172752E-1,3.391386747E0,9.215881348E0,9.823027525E0
1.849445468E0,-1.975216419E-1,3.400963545E0,9.326014519E0,9.928751917E0
1.851957604E0,-1.496376097E-1,3.468001127E0,9.488820076E0,1.010381758E1
1.854469896E0,-1.113303825E-1,3.520673513E0,9.618106842E0,1.024282752E1
1.856982291E0,-3.950432688E-2,3.563769341E0,9.675567627E0,1.031109215E1
1.859494843E0,8.379706182E-3,3.649960518E0,9.646837234E0,1.031424988E1
1.862007552E0,5.147533491E-2,3.649960518E0,9.579799652E0,1.025170341E1
1.864520416E0,8.499415964E-2,3.630806923E0,9.378686905E0,1.005732325E1
1.867033437E0,1.328781992E-1,3.611653328E0,9.182361603E0,9.868001874E0
1.869546614E0,1.807622313E-1,3.582922935E0,9.077016830E0,9.760238024E0
1.872059948E0,2.334346622E-1,3.539827108E0,8.962095261E0,9.638673102E0
1.874573385E0,2.621650994E-1,3.477577925E0,8.861538887E0,9.523085120E0
1.877086927E0,3.148375154E-1,3.400963545E0,8.732252121E0,9.376454703E0
1.879600521E0,3.292027414E-1,3.333925962E0,8.559869766E0,9.192105699E0
1.882114166E0,3.339911401E-1,3.257311344E0,8.377910614E0,8.995054949E0
1.884627812E0,3.196259141E-1,3.022679567E0,8.047510147E0,8.602393391E0
1.887141458E0,6.584054977E-2,2.744952202E0,7.946953773E0,8.407923159E0
1.889655104E0,-1.197100850E-3,2.869450808E0,8.157643318E0,8.647594687E0
1.892168333E0,-1.017535701E-1,2.955641985E0,8.057086945E0,8.582704898E0
1.894681198E0,-2.501940727E-1,3.017891169E0,7.741052628E0,8.312289694E0
1.897194062E0,-4.082113802E-1,2.922123194E0,7.444171429E0,8.007566968E0
1.899706823E0,-3.651157618E-1,2.649184227E0,7.209539890E0,7.689535228E0
1.902219583E0,-3.220201433E-1,2.577358246E0,7.195174694E0,7.649641258E0
1.904732343E0,-3.315969408E-1,2.548627615E0,7.171232700E0,7.617876193E0
1.907245104E0,-3.699041605E-1,2.634819031E0,7.228693485E0,7.702798837E0
1.909757916E0,-3.459621370E-1,2.730587006E0,7.233481884E0,7.739448001E0
1.912270781E0,-3.124433160E-1,2.845508814E0,7.281365871E0,7.823862869E0
1.914783646E0,-2.837128937E-1,2.941276789E0,7.290942669E0,7.866984629E0
1.917296510E0,-2.693476975E-1,3.094505787E0,7.271789074E0,7.907428823E0
1.919808750E0,-2.358288616E-1,3.185485363E0,7.233481884E0,7.907350531E0
1.922320989E0,-1.783680320E-1,3.309983969E0,7.219116688E0,7.943768298E0
1.924833229E0,-1.304839998E-1,3.439270735E0,7.233481884E0,8.010547386E0
1.927345521E0,-8.259996027E-2,3.554192305E0,7.338826656E0,8.154598849E0
1.929857864E0,-5.386953801E-2,3.673902512E0,7.453748226E0,8.310163910E0
1.932370312E0,8.379706182E-3,3.798400879E0,7.592612267E0,8.489739718E0
1.934882864E0,9.457096457E-2,3.937264681E0,7.764994621E0,8.706672057E0
1.937395573E0,1.376665980E-1,3.989937067E0,7.975684643E0,8.919086019E0
1.939908437E0,8.499415964E-2,3.970783472E0,8.124124527E0,9.042994234E0
1.942421458E0,2.274491638E-2,3.908534288E0,8.291719437E0,9.166775269E0
1.944934635E0,1.316810958E-2,3.836708307E0,8.564658165E0,9.384768165E0
1.947447968E0,1.185129806E-1,3.774458885E0,8.765770912E0,9.544596633E0
1.949961458E0,2.621650994E-1,3.702632904E0,8.866327286E0,9.611970688E0
1.952475052E0,4.106055796E-1,3.669114113E0,8.880692482E0,9.617572161E0
1.954988750E0,5.398924947E-1,3.616441727E0,8.813654900E0,9.542046288E0
1.957502500E0,6.069301367E-1,3.563769341E0,8.693944931E0,9.415598471E0
1.960016250E0,6.500257850E-1,3.530250311E0,8.617330551E0,9.335072930E0
1.962530000E0,6.308721304E-1,3.491943121E0,8.583811760E0,9.288352423E0
1.965043073E0,5.542576909E-1,3.472789526E0,8.612542152E0,9.302867891E0
1.967555937E0,4.776432514E-1,3.448847532E0,8.674791336E0,9.347443346E0
1.970068802E0,3.675099611E-1,3.429693937E0,8.770559311E0,9.424466813E0
1.972581666E0,2.525882721E-1,3.420117140E0,8.832808495E0,9.475204905E0
1.975094531E0,1.663970202E-1,3.405751944E0,8.789712906E0,9.427931228E0
1.977607396E0,5.626374111E-2,3.396175146E0,8.717886925E0,9.356213105E0
1.980120312E0,1.041477770E-1,3.137601376E0,8.593388557E0,9.148864195E0
1.982633281E0,6.584054977E-2,3.075352192E0,8.569446564E0,9.104808647E0
1.985146302E0,-7.302315533E-2,3.209427357E0,8.588600159E0,9.168958994E0
1.987659375E0,-2.406172752E-1,3.372233152E0,8.555081367E0,9.198873318E0
1.990172500E0,-3.746925592E-1,3.496731520E0,8.416217804E0,9.121416993E0
1.992685625E0,-4.991910458E-1,3.578134537E0,8.253412247E0,9.009497887E0
1.995198750E0,-6.093243361E-1,3.616441727E0,8.152854919E0,8.939741061E0
1.997711875E0,-7.050924301E-1,3.645172119E0,8.157643318E0,8.962788607E0
2.000225052E0,-7.864952683E-1,3.635595322E0,8.181585312E0,8.987461620E0
2.002738281E0,-8.487445116E-1,3.592499733E0,8.195950508E0,8.988883485E0
2.005251510E0,-9.014169574E-1,3.539827108E0,8.215105057E0,8.990599512E0
2.007764739E0,-8.774749041E-1,3.444059134E0,8.267777443E0,8.999313828E0
2.010277968E0,-8.535329103E-1,3.391386747E0,8.267777443E0,8.976979801E0
2.012791198E0,-8.104372621E-1,3.367444754E0,8.330026627E0,9.021409886E0
2.015304427E0,-6.332663298E-1,3.362656355E0,8.406641006E0,9.076348220E0
2.017817656E0,-5.087678432E-1,3.343502760E0,8.421006203E0,9.074756244E0
2.020330885E0,-4.800374508E-1,3.329137564E0,8.425794601E0,9.072354024E0
2.022843541E0,-4.608838260E-1,3.353079557E0,8.454524994E0,9.106840796E0
2.025356198E0,-4.513070285E-1,3.357867956E0,8.464101791E0,9.117015651E0
2.027868854E0,-4.465186298E-1,3.381809950E0,8.440159798E0,9.103423248E0
2.030381510E0,-4.608838260E-1,3.463212729E0,8.464101791E0,9.156815791E0
2.032894166E0,-4.752490520E-1,3.511096716E0,8.430583000E0,9.144856015E0
2.035406823E0,-4.513070285E-1,3.424905539E0,8.382699013E0,9.066603483E0
2.037919479E0,-4.177882075E-1,3.338714361E0,8.334815025E0,8.988364817E0
2.040432135E0,-4.034229815E-1,3.262099743E0,8.301296234E0,8.928357296E0
2.042944843E0,-3.555389643E-1,3.204638958E0,8.248623848E0,8.856405263E0
2.045457604E0,-3.268085420E-1,3.128024578E0,8.210315704E0,8.792077431E0
2.047970416E0,-3.028665185E-1,3.084928989E0,8.167220116E0,8.735673953E0
2.050483281E0,-2.932897210E-1,3.032256365E0,8.114547729E0,8.667553425E0
2.052996198E0,-2.932897210E-1,2.989160776E0,8.042721748E0,8.585247470E0
2.055509166E0,-3.268085420E-1,2.960430384E0,8.033144951E0,8.567518292E0
2.058022187E0,-3.507505357E-1,2.984372377E0,8.042721748E0,8.585736867E0
2.060535312E0,-4.273650050E-1,2.984372377E0,8.047510147E0,8.593691809E0
2.063048541E0,-5.039794445E-1,3.032256365E0,8.013991356E0,8.583276262E0
2.065561823E0,-5.614402890E-1,3.104082584E0,7.970896244E0,8.572381864E0
2.068075156E0,-6.284779310E-1,3.142389774E0,7.966107368E0,8.586528088E0
2.070588541E0,-6.619967818E-1,3.209427357E0,7.951742172E0,8.600515524E0
2.073101927E0,-7.338228226E-1,3.271676540E0,7.961318970E0,8.638574133E0
2.075615312E0,-7.769184709E-1,3.290830135E0,7.985261440E0,8.671652989E0
2.078128073E0,-8.008604646E-1,3.305195332E0,8.013991356E0,8.705730935E0
2.080640833E0,-8.391677141E-1,3.295618534E0,8.100182533E0,8.785115881E0
2.083153593E0,-8.583213091E-1,3.290830135E0,8.219893456E0,8.895668995E0
2.085666354E0,-8.822633028E-1,3.276464939E0,8.325238228E0,8.990172556E0
2.088179114E0,-8.726865053E-1,3.271676540E0,8.411429405E0,9.067391784E0
2.090691875E0,-8.631097078E-1,3.247734547E0,8.459313393E0,9.102347012E0
2.093204635E0,-8.678981066E-1,3.228580952E0,8.507197380E0,9.140535507E0
2.095717396E0,-8.726865053E-1,3.242946148E0,8.579023361E0,9.212921539E0
2.098229948E0,-9.445125461E-1,3.434482336E0,8.770559311E0,9.466281397E0
2.100742343E0,-1.011550188E0,3.487154722E0,8.851962090E0,9.567691188E0
2.103254739E0,-1.069011092E0,3.448847532E0,8.880692482E0,9.586659114E0
2.105767187E0,-1.116895080E0,3.429693937E0,8.918999672E0,9.620748945E0
2.108279687E0,-1.145625472E0,3.439270735E0,9.000402451E0,9.703003926E0
2.110792291E0,-1.193509579E0,3.424905539E0,8.995614052E0,9.699253334E0
2.113305000E0,-1.207874775E0,3.396175146E0,8.918999672E0,9.619850427E0
2.115817812E0,-1.198297977E0,3.357867956E0,8.851962090E0,9.542977947E0
2.118330729E0,-1.169567585E0,3.295618534E0,8.770559311E0,9.442017818E0
2.120843750E0,-1.140837073E0,3.257311344E0,8.713098526E0,9.371748628E0
2.123356875E0,-1.116895080E0,3.190273762E0,8.617330551E0,9.256548337E0
2.125870052E0,-1.097741485E0,3.147178173E0,8.526350975E0,9.154694302E0
2.128383281E0,-1.097741485E0,3.080140591E0,8.468890190E0,9.078237906E0
2.130896562E0,-1.112106681E0,3.051409960E0,8.468890190E0,9.070280319E0
2.133409896E0,-1.116895080E0,3.022679567E0,8.411429405E0,9.007562990E0
2.135923281E0,-1.131260276E0,3.013102770E0,8.320449829E0,8.921234414E0
2.138436666E0,-1.131260276E0,2.993949175E0,8.262989044E0,8.861177654E0
2.140950052E0,-1.131260276E0,2.979583979E0,8.162431717E0,8.762588774E0
2.143462604E0,-1.107318282E0,2.979583979E0,8.071452141E0,8.674814933E0
2.145975156E0,-1.102529883E0,2.960430384E0,7.932588577E0,8.538482402E0
2.148487708E0,-1.069011092E0,2.974795580E0,7.798513412E0,8.414808667E0
2.151000260E0,-1.035492182E0,2.998737574E0,7.726687431E0,8.352626518E0
2.153512812E0,-9.636662006E-1,3.017891169E0,7.645284653E0,8.275668980E0
2.156025364E0,-9.062053561E-1,3.027467966E0,7.535151482E0,8.171002281E0
2.158537916E0,-8.152256608E-1,3.075352192E0,7.477690697E0,8.126391705E0
2.161050521E0,-7.146692276E-1,3.099294186E0,7.415441036E0,8.068775763E0
2.163563177E0,-6.093243361E-1,3.108870983E0,7.362768650E0,8.015404989E0
2.166075885E0,-5.087678432E-1,3.113659382E0,7.334038258E0,7.983848485E0
2.168588646E0,-3.986345828E-1,3.113659382E0,7.300519466E0,7.946783548E0
2.171101458E0,-2.741360962E-1,3.104082584E0,7.247847080E0,7.889345131E0
2.173614271E0,-1.065419763E-1,3.108870983E0,7.233481884E0,7.873988198E0
2.176127083E0,1.041477770E-1,3.104082584E0,7.295731068E0,7.929304337E0
2.178639896E0,2.908954918E-1,3.118447781E0,7.381922245E0,8.018859818E0
2.181152708E0,4.776432514E-1,3.151966572E0,7.487267494E0,8.137703047E0
2.183665521E0,6.212953329E-1,3.151966572E0,7.606977463E0,8.257542448E0
2.186178385E0,7.266402245E-1,3.204638958E0,7.784148216E0,8.449300582E0
2.188691302E0,8.080430627E-1,3.262099743E0,7.961318970E0,8.641575554E0
2.191204218E0,8.463503122E-1,3.333925962E0,8.152854919E0,8.848752144E0
2.193717135E0,8.607155085E-1,3.434482336E0,8.349180222E0,9.068920028E0
2.196229791E0,8.176198602E-1,3.506308317E0,8.579023361E0,9.303888546E0
2.198742448E0,7.026981711E-1,3.477577925E0,8.660426140E0,9.358969701E0
2.201255104E0,5.734112859E-1,3.525461912E0,8.756194115E0,9.456670533E0
2.203767760E0,4.584896266E-1,3.573346138E0,8.947730064E0,9.645770507E0
2.206280416E0,3.004723191E-1,3.587711334E0,9.124900818E0,9.809473542E0
2.208793125E0,1.520318091E-1,3.582922935E0,9.249400139E0,9.920274863E0
2.211305885E0,-2.035071515E-2,3.520673513E0,9.354744911E0,9.995339339E0
2.213818646E0,-1.640028208E-1,3.453635931E0,9.440936089E0,1.005414205E1
2.216331406E0,-2.932897210E-1,3.348291159E0,9.598953247E0,1.017039704E1
2.218844166E0,-3.938461840E-1,3.219004154E0,9.804854393E0,1.032725870E1
2.221356927E0,-4.896142483E-1,3.075352192E0,1.009694672E1,1.056625980E1
2.223869687E0,-7.194576263E-1,2.912546396E0,1.040340519E1,1.082734433E1
2.226382448E0,-8.487445116E-1,2.797624588E0,1.071943951E1,1.111096098E1
2.228895208E0,-8.918401599E-1,2.653972626E0,1.102110863E1,1.137118221E1
2.231407968E0,-9.062053561E-1,2.443282843E0,1.119349194E1,1.149282824E1
2.233920729E0,-9.157821536E-1,2.223016262E0,1.129883671E1,1.155180372E1
2.236433489E0,-9.157821536E-1,1.993172884E0,1.138023949E1,1.158970430E1
2.238946250E0,-9.301473498E-1,1.777694821E0,1.146164227E1,1.163591923E1
2.241459010E0,-9.253589511E-1,1.600523829E0,1.153825665E1,1.168543247E1
2.243971771E0,-8.822633028E-1,1.408987641E0,1.160050583E1,1.171901746E1
2.246484531E0,-7.673416734E-1,1.231816769E0,1.167233181E1,1.176220709E1
2.248997291E0,-5.997475386E-1,1.054645896E0,1.171542740E1,1.177808194E1
2.251510052E0,-4.082113802E-1,7.864952683E-1,1.171542740E1,1.174889146E1
2.254022812E0,-2.645592988E-1,6.524199843E-1,1.167712021E1,1.169832380E1
2.256535573E0,-1.592144072E-1,6.332663298E-1,1.162444782E1,1.164277298E1
2.259048333E0,-8.738835901E-2,6.284779310E-1,1.157177544E1,1.158915907E1
2.261561093E0,-1.975216419E-1,3.890577853E-1,1.145206547E1,1.146037452E1
2.264073854E0,-4.560954273E-1,7.302315533E-2,1.125095272E1,1.126043039E1
2.266586510E0,-4.704606235E-1,1.556231081E-2,1.108814621E1,1.109813326E1
2.269099062E0,-4.752490520E-1,-1.795651205E-2,1.085830307E1,1.086871334E1
2.271611562E0,-4.752490520E-1,-8.379706182E-3,1.053748035E1,1.054819530E1
2.274124062E0,-4.369418025E-1,6.344634295E-2,1.026454163E1,1.027403321E1
2.276636562E0,-3.938461840E-1,2.070984542E-1,1.015440750E1,1.016415251E1
2.279149062E0,-2.980781198E-1,3.172317147E-1,1.007300472E1,1.008240600E1
2.281661562E0,-1.592144072E-1,2.597708702E-1,9.967659950E0,9.972315429E0
2.284174062E0,-8.738835901E-2,3.076549172E-1,9.900622368E0,9.905786771E0
2.286686562E0,-1.077390742E-2,3.986345828E-1,9.780912399E0,9.789038409E0
2.289199062E0,3.711012751E-2,4.513070285E-1,9.642048836E0,9.652676362E0
2.291711562E0,9.457096457E-2,5.231330991E-1,9.613318443E0,9.628006201E0
2.294224062E0,1.711854190E-1,5.710170865E-1,9.560646057E0,9.579212806E0
2.296736614E0,1.999158412E-1,5.949591398E-1,9.373898506E0,9.394887755E0
2.299249218E0,1.711854190E-1,5.901707411E-1,9.148842812E0,9.169456404E0
2.301761875E0,1.185129806E-1,6.380547285E-1,8.957306862E0,8.980785343E0
2.304274583E0,5.626374111E-2,6.476315856E-1,8.780136108E0,8.804168465E0
2.306787291E0,-5.985504016E-3,6.619967818E-1,8.646060944E0,8.671369292E0
2.309300000E0,-8.259996027E-2,7.098808289E-1,8.569446564E0,8.599195774E0
2.311812708E0,-1.448491961E-1,7.625532150E-1,8.492832184E0,8.528227670E0
2.314325416E0,-2.023100406E-1,8.295909166E-1,8.464101791E0,8.507065862E0
2.316838125E0,-2.358288616E-1,9.062053561E-1,8.483255386E0,8.534778576E0
2.319350833E0,-2.789244950E-1,1.006761789E0,8.511985779E0,8.575853898E0
2.321863125E0,-3.028665185E-1,1.126471877E0,8.555081367E0,8.634239064E0
2.324375156E0,-3.220201433E-1,1.255758762E0,8.564658165E0,8.662216606E0
2.326887187E0,-3.220201433E-1,1.385045648E0,8.559869766E0,8.677178046E0
2.329399218E0,-3.172317147E-1,1.538274646E0,8.555081367E0,8.698065420E0
2.331911250E0,-2.789244950E-1,1.734599113E0,8.550292969E0,8.728925639E0
2.334423281E0,-2.789244950E-1,1.940500498E0,8.579023361E0,8.800169481E0
2.336935312E0,-2.980781198E-1,2.141613483E0,8.650849342E0,8.916981172E0
2.339447396E0,-3.507505357E-1,2.381033659E0,8.780136108E0,9.104017646E0
2.341959531E0,-4.034229815E-1,2.596511841E0,8.995614052E0,9.371536481E0
2.344471718E0,-4.560954273E-1,2.773682594E0,9.215881348E0,9.635030212E0
2.346983958E0,-4.369418025E-1,2.883816004E0,9.469666481E0,9.908677820E0
2.349496302E0,-3.411737382E-1,2.922123194E0,9.756970406E0,1.019086233E1
2.352008750E0,-2.645592988E-1,2.941276789E0,1.004427433E1,1.046941009E1
2.354521250E0,-1.879448295E-1,2.941276789E0,1.033157921E1,1.074374057E1
2.357033802E0,-1.496376097E-1,2.855085611E0,1.062367153E1,1.100164997E1
2.359546406E0,-1.256955862E-1,2.773682594E0,1.091097546E1,1.125870774E1
2.362059062E0,-1.209071875E-1,2.716221809E0,1.121264553E1,1.153758637E1
2.364571771E0,-7.781155407E-2,2.610877037E0,1.152867985E1,1.182087952E1
2.367084531E0,-1.556231081E-2,2.390610456E0,1.181119537E1,1.205070939E1
2.369597343E0,7.541735470E-2,2.050633669E0,1.204582691E1,1.221935891E1
2.372110208E0,1.520318091E-1,1.638831019E0,1.225172901E1,1.236178565E1
2.374623125E0,2.334346622E-1,1.193509579E0,1.246720695E1,1.252638041E1
2.377136093E0,2.861070931E-1,7.817068696E-1,1.261085892E1,1.263830232E1
2.379649114E0,3.387795389E-1,4.177882075E-1,1.270662689E1,1.271800635E1
2.382162187E0,3.483563364E-1,1.113303825E-1,1.276887608E1,1.277411221E1
2.384675260E0,3.100491166E-1,-8.499415964E-2,1.283112526E1,1.283515212E1
2.387188333E0,2.621650994E-1,-2.621650994E-1,1.286943245E1,1.287477195E1
2.389700729E0,2.047042400E-1,-3.770867586E-1,1.291252804E1,1.291965474E1
2.392213125E0,1.137245819E-1,-4.632780254E-1,1.295083523E1,1.295961778E1
2.394725521E0,-1.197100850E-3,-5.159504414E-1,1.293647003E1,1.294675493E1
2.397237916E0,-1.113303825E-1,-5.877765417E-1,1.286464405E1,1.287854581E1
2.399750312E0,-2.118868530E-1,-6.260837317E-1,1.275451088E1,1.277162576E1
2.402262708E0,-2.741360962E-1,-6.500257850E-1,1.258212852E1,1.260189043E1
2.404775156E0,-3.411737382E-1,-6.404489279E-1,1.239538097E1,1.241660355E1
2.407287656E0,-3.603273630E-1,-6.404489279E-1,1.220863342E1,1.223072936E1
2.409800208E0,-4.082113802E-1,-5.973533392E-1,1.200751972E1,1.202929746E1
2.412312812E0,-4.608838260E-1,-5.111620426E-1,1.178725338E1,1.180733004E1
2.414825468E0,-4.944026470E-1,-4.297592044E-1,1.158614063E1,1.160464483E1
2.417338177E0,-5.183446407E-1,-3.387795389E-1,1.139460468E1,1.141141834E1
2.419850937E0,-5.135562420E-1,-2.190694511E-1,1.117912674E1,1.119306062E1
2.422363750E0,-4.608838260E-1,-8.499415964E-2,1.099237823E1,1.100236416E1
2.424876614E0,-4.034229815E-1,5.865794048E-2,1.076732349E1,1.077503810E1
2.427389531E0,-2.980781198E-1,1.592144072E-1,1.059015274E1,1.059554316E1
2.429902448E0,-1.735796183E-1,2.645592988E-1,1.047044277E1,1.047522283E1
2.432415364E0,-3.950432688E-2,3.268085420E-1,1.038425159E1,1.038946801E1
2.434928281E0,8.499415964E-2,3.746925592E-1,1.025017643E1,1.025737468E1
2.437441041E0,2.047042400E-1,3.411737382E-1,1.010652351E1,1.011435222E1
2.439953437E0,3.148375154E-1,2.741360962E-1,9.919775963E0,9.928556210E0
2.442465833E0,4.824316502E-1,2.214636505E-1,9.766547203E0,9.780962668E0
2.444978229E0,6.260837317E-1,1.448491961E-1,9.594164848E0,9.615662289E0
2.447490625E0,6.931213737E-1,6.344634295E-2,9.469666481E0,9.495210684E0
2.450003021E0,7.026981711E-1,-8.379706182E-3,9.474454880E0,9.500481578E0
2.452515416E0,6.835445762E-1,-7.062894851E-2,9.551069260E0,9.575758228E0
2.455027812E0,6.308721304E-1,-1.376665980E-1,9.627683640E0,9.649313136E0
2.457540260E0,4.297592044E-1,-3.292027414E-1,9.665990829E0,9.681138680E0
2.460052760E0,3.100491166E-1,-3.914519846E-1,9.723451614E0,9.736266040E0
2.462565312E0,2.142810524E-1,-3.387795389E-1,9.800065994E0,9.808260877E0
2.465077916E0,1.233013868E-1,-2.286462635E-1,9.824007988E0,9.827441951E0
2.467590573E0,-1.197100850E-3,-1.185129806E-1,9.809642792E0,9.810358733E0
2.470103281E0,-1.209071875E-1,1.556231081E-2,9.785700798E0,9.786460077E0
2.472616041E0,-2.358288616E-1,1.687912196E-1,9.785700798E0,9.789997234E0
2.475128854E0,-3.794809580E-1,3.028665185E-1,9.828796387E0,9.840781084E0
2.477641718E0,-5.374982953E-1,3.890577853E-1,9.867103577E0,9.889388422E0
2.480154635E0,-6.667851806E-1,4.225766063E-1,9.852738380E0,9.884312169E0
2.482667552E0,-7.673416734E-1,4.273650050E-1,9.838373184E0,9.877501759E0
2.485180468E0,-8.439561129E-1,4.177882075E-1,9.795277596E0,9.840440645E0
2.487693385E0,-8.870517015E-1,4.177882075E-1,9.747393608E0,9.796585622E0
2.490206302E0,-9.109937549E-1,4.082113802E-1,9.709086418E0,9.760271780E0
2.492719218E0,-9.205705523E-1,4.034229815E-1,9.675567627E0,9.727631220E0
2.495232135E0,-9.301473498E-1,3.986345828E-1,9.594164848E0,9.647387354E0
2.497745052E0,-9.301473498E-1,3.842693865E-1,9.541492462E0,9.594421059E0
2.500257968E0,-9.157821536E-1,3.603273630E-1,9.460089684E0,9.511140288E0
2.502770885E0,-9.205705523E-1,3.268085420E-1,9.378686905E0,9.429423207E0
2.505283802E0,-9.205705523E-1,2.885012925E-1,9.306860924E0,9.356727173E0
2.507796718E0,-9.349357486E-1,2.597708702E-1,9.244611740E0,9.295398431E0
2.510309635E0,-9.205705523E-1,2.358288616E-1,9.153631210E0,9.202827268E0
2.512822552E0,-9.109937549E-1,2.070984542E-1,9.067440033E0,9.115441193E0
2.515335468E0,-8.966285586E-1,1.735796183E-1,8.952518463E0,8.998981025E0
2.517848385E0,-8.726865053E-1,1.592144072E-1,8.837596893E0,8.882007082E0
2.520361302E0,-8.487445116E-1,1.544260085E-1,8.741828918E0,8.784292087E0
2.522874218E0,-8.391677141E-1,1.592144072E-1,8.655637741E0,8.697678793E0
2.525387135E0,-8.200140595E-1,1.640028208E-1,8.564658165E0,8.605387235E0
2.527900052E0,-7.769184709E-1,1.640028208E-1,8.521562576E0,8.558476966E0
2.530412968E0,-7.386112213E-1,1.592144072E-1,8.478466988E0,8.512067800E0
2.532925885E0,-6.811503768E-1,1.400607973E-1,8.483255386E0,8.511709864E0
2.535438698E0,-6.189011335E-1,1.400607973E-1,8.521562576E0,8.545155609E0
2.537951198E0,-5.470750928E-1,1.209071875E-1,8.526350975E0,8.544739356E0
2.540463698E0,-4.944026470E-1,8.738835901E-2,8.507197380E0,8.521999646E0
2.542976198E0,-4.417302012E-1,6.823474914E-2,8.497620583E0,8.509367610E0
2.545488698E0,-3.746925592E-1,2.992752194E-2,8.473678589E0,8.482011495E0
2.548001198E0,-3.076549172E-1,1.556231081E-2,8.502408981E0,8.507987554E0
2.550513698E0,-2.501940727E-1,1.556231081E-2,8.545504570E0,8.549180523E0
2.553026250E0,-1.831564307E-1,3.950432688E-2,8.650849342E0,8.652878204E0
2.555538854E0,-1.400607973E-1,5.386953801E-2,8.770559311E0,8.771842998E0
2.558051510E0,-9.696517140E-2,5.386953801E-2,8.861538887E0,8.862233106E0
2.560564218E0,-7.302315533E-2,5.386953801E-2,8.952518463E0,8.952978339E0
2.563076979E0,-6.344634295E-2,5.865794048E-2,9.043498039E0,9.043910823E0
2.565589843E0,-2.035071515E-2,4.908113554E-2,9.072228432E0,9.072384021E0
2.568102812E0,3.591302549E-3,5.386953801E-2,9.096170425E0,9.096330647E0
2.570615885E0,4.668693244E-2,3.950432688E-2,9.105747223E0,9.105952600E0
2.573129010E0,8.978256583E-2,3.471592441E-2,9.067440033E0,9.067950973E0
2.575642187E0,1.233013868E-1,4.429273307E-2,9.057863235E0,9.058810710E0
2.578155416E0,1.568202078E-1,5.865794048E-2,9.033921242E0,9.035472668E0
2.580668646E0,1.807622313E-1,4.908113554E-2,8.995614052E0,8.997563899E0
2.583181875E0,1.903390288E-1,5.386953801E-2,8.933364868E0,8.935554753E0
2.585695104E0,1.903390288E-1,2.992752194E-2,8.832808495E0,8.834909762E0
2.588207656E0,1.759738177E-1,3.950432688E-2,8.794501305E0,8.796350412E0
2.590719896E0,1.472434103E-1,4.908113554E-2,8.770559311E0,8.771932524E0
2.593232135E0,1.280897856E-1,5.386953801E-2,8.751405716E0,8.752508836E0
2.595744375E0,9.457096457E-2,5.865794048E-2,8.775347710E0,8.776053318E0
2.598256614E0,4.189852998E-2,1.017535701E-1,8.847173691E0,8.847858023E0
2.600768854E0,-2.992752194E-2,1.304839998E-1,8.904634476E0,8.905640734E0
2.603281093E0,-1.065419763E-1,1.304839998E-1,8.971672058E0,8.973253411E0
2.605793333E0,-1.544260085E-1,1.544260085E-1,9.081805229E0,9.084430692E0
2.608305573E0,-2.454056740E-1,1.687912196E-1,9.215881348E0,9.220693219E0
2.610817864E0,-3.459621370E-1,1.783680320E-1,9.302072525E0,9.310212576E0
2.613330208E0,-4.704606235E-1,1.927332431E-1,9.373898506E0,9.387675565E0
2.615842604E0,-5.039794445E-1,1.783680320E-1,9.431359291E0,9.446499273E0
2.618355052E0,-5.327098966E-1,1.592144072E-1,9.531915665E0,9.548117369E0
2.620867552E0,-5.614402890E-1,1.209071875E-1,9.637260437E0,9.654357694E0
2.623380104E0,-5.374982953E-1,9.696517140E-2,9.771335602E0,9.786588073E0
2.625892708E0,-4.848258495E-1,2.992752194E-2,9.924564362E0,9.936444511E0
2.628405312E0,-4.034229815E-1,-4.189852998E-2,1.006821632E1,1.007638256E1
2.630917916E0,-3.363853395E-1,-1.328781992E-1,1.022144604E1,1.022784292E1
2.633430052E0,-2.597708702E-1,-2.238578647E-1,1.036030960E1,1.036598323E1
2.635941718E0,-1.783680320E-1,-3.292027414E-1,1.047523117E1,1.048192051E1
2.638453385E0,-1.065419763E-1,-4.058171809E-1,1.052790356E1,1.053626082E1
2.640965104E0,-9.696517140E-2,-4.153940082E-1,1.041777039E1,1.042649962E1
2.643476927E0,-6.823474914E-2,-3.866635859E-1,1.033157921E1,1.033903737E1
2.645988854E0,-2.513911761E-2,-3.818751574E-1,1.044171238E1,1.044872327E1
2.648500885E0,-2.035071515E-2,-2.382230759E-1,1.062845993E1,1.063114880E1
2.651013021E0,-2.035071515E-2,-2.274491638E-2,1.078168869E1,1.078173189E1
2.653525260E0,3.711012751E-2,-5.147533491E-2,1.090139866E1,1.090158335E1
2.656037656E0,1.185129806E-1,-1.472434103E-1,1.105941582E1,1.106103088E1
2.658550156E0,1.951274425E-1,-2.430114746E-1,1.123179913E1,1.123612215E1
2.661062760E0,2.669534981E-1,-3.722983599E-1,1.135629749E1,1.136553399E1
2.663575416E0,3.722983599E-1,-4.967968464E-1,1.142333508E1,1.144019219E1
2.666088125E0,4.728548229E-1,-6.308721304E-1,1.144248867E1,1.146961805E1
2.668600937E0,5.877765417E-1,-7.745242715E-1,1.142812347E1,1.146941041E1
2.671113854E0,6.979097724E-1,-9.038111567E-1,1.137066269E1,1.142785731E1
2.673626875E0,7.984662652E-1,-1.037886381E0,1.131799030E1,1.139349205E1
2.676140000E0,9.133879542E-1,-1.152808070E0,1.121743393E1,1.131344633E1
2.678653229E0,1.028309584E0,-1.229422569E0,1.112645340E1,1.124130178E1
2.681166510E0,1.148019671E0,-1.334767461E0,1.103068542E1,1.117029876E1
2.683679843E0,1.267729759E0,-1.401805043E0,1.093970585E1,1.110177284E1
2.686193177E0,1.401805043E0,-1.502361536E0,1.090139866E1,1.109336019E1
2.688706510E0,1.516726732E0,-1.598129630E0,1.084872627E1,1.107020054E1
2.691219843E0,1.646013618E0,-1.669955730E0,1.084393787E1,1.109455279E1
2.693733177E0,1.751358509E0,-1.622071624E0,1.086309147E1,1.112228076E1
2.696245989E0,1.794454217E0,-1.483207941E0,1.080563068E1,1.105357979E1
2.698758750E0,1.775300503E0,-1.282094955E0,1.070028591E1,1.092206839E1
2.701271458E0,1.746570110E0,-1.042674899E0,1.062367153E1,1.081665729E1
2.703784166E0,1.684320927E0,-7.553706169E-1,1.056142235E1,1.072152805E1
2.706296875E0,1.612494826E0,-4.776432514E-1,1.055663395E1,1.068975224E1
2.708809583E0,1.531091928E0,-2.238578647E-1,1.043213558E1,1.054626984E1
2.711322291E0,1.511938334E0,-1.795651205E-2,1.042734718E1,1.053640590E1
2.713835000E0,1.497573137E0,1.592144072E-1,1.059972954E1,1.070618236E1
2.716347708E0,1.492784739E0,2.358288616E-1,1.074338150E1,1.084915976E1
2.718860416E0,1.487996340E0,2.980781198E-1,1.091576385E1,1.102074790E1
2.721373125E0,1.497573137E0,3.124433160E-1,1.109293461E1,1.119792590E1
2.723885885E0,1.464054346E0,2.837128937E-1,1.121743393E1,1.131612885E1
2.726398698E0,1.444900751E0,2.262520641E-1,1.128447151E1,1.137884992E1
2.728911562E0,1.373074651E0,1.448491961E-1,1.128925991E1,1.137337701E1
2.731424427E0,1.286883354E0,8.738835901E-2,1.125095272E1,1.132464757E1
2.733937291E0,1.215057373E0,2.035071515E-2,1.118391514E1,1.124974384E1
2.736450208E0,1.148019671E0,-3.232172132E-2,1.113124180E1,1.119033234E1
2.738963177E0,1.104924083E0,-7.541735470E-2,1.109772301E1,1.115284721E1
2.741476198E0,1.104924083E0,-1.185129806E-1,1.108814621E1,1.114369279E1
2.743989218E0,1.066616893E0,-1.424549967E-1,1.111208820E1,1.116407046E1
2.746502239E0,1.033097982E0,-1.472434103E-1,1.112645340E1,1.117528243E1
2.749015260E0,1.018732786E0,-1.807622313E-1,1.113124180E1,1.117922338E1
2.751528281E0,9.947907925E-1,-2.047042400E-1,1.117912674E1,1.122516758E1
2.754041302E0,9.995791912E-1,-2.190694511E-1,1.125574112E1,1.130216166E1
2.756554323E0,9.804255962E-1,-2.286462635E-1,1.132277870E1,1.136744611E1
2.759067396E0,9.900023937E-1,-2.286462635E-1,1.138023949E1,1.142550807E1
2.761580521E0,1.023521185E0,-2.477998734E-1,1.143770027E1,1.148607800E1
2.764093698E0,1.047463298E0,-2.142810524E-1,1.145685387E1,1.150663271E1
2.766606927E0,1.047463298E0,-1.951274425E-1,1.145685387E1,1.150629196E1
2.769120156E0,1.095347285E0,-1.472434103E-1,1.141854668E1,1.147190806E1
2.771633385E0,1.124077678E0,-1.233013868E-1,1.140418148E1,1.146010947E1
2.774146614E0,1.157596469E0,-8.978256583E-2,1.134672070E1,1.140597041E1
2.776659687E0,1.200692177E0,-7.062894851E-2,1.132277870E1,1.138648180E1
2.779172760E0,1.224634171E0,-4.668693244E-2,1.129883671E1,1.136510534E1
2.781685833E0,1.238999367E0,-3.232172132E-2,1.127010632E1,1.133805365E1
2.784198854E0,1.267729759E0,-2.274491638E-2,1.125095272E1,1.132217264E1
2.786711823E0,1.267729759E0,-3.591302549E-3,1.124616432E1,1.131739208E1
2.789224687E0,1.272518158E0,2.513911761E-2,1.123179913E1,1.130368285E1
2.791737343E0,1.282094955E0,5.386953801E-2,1.122701073E1,1.130010793E1
2.794250000E0,1.272518158E0,8.259996027E-2,1.121264553E1,1.128492557E1
2.796762656E0,1.277306557E0,9.217676520E-2,1.120785713E1,1.128078322E1
2.799275312E0,1.262941360E0,1.544260085E-1,1.118870354E1,1.126081503E1
2.801787968E0,1.262941360E0,1.879448295E-1,1.117912674E1,1.125180958E1
2.804300625E0,1.277306557E0,2.262520641E-1,1.114081860E1,1.121608403E1
2.806813281E0,1.248576164E0,2.645592988E-1,1.107378101E1,1.114708751E1
2.809325937E0,1.229422569E0,2.693476975E-1,1.099716663E1,1.106895216E1
2.811838593E0,1.171961784E0,2.837128937E-1,1.093970585E1,1.100595982E1
2.814351250E0,1.104924083E0,3.220201433E-1,1.087266827E1,1.093341070E1
2.816863125E0,1.066616893E0,3.268085420E-1,1.079605389E1,1.085353652E1
2.819374635E0,1.013944387E0,3.459621370E-1,1.073380470E1,1.078713755E1
2.821886146E0,9.564836025E-1,3.315969408E-1,1.068592072E1,1.073376537E1
2.824397656E0,8.942343593E-1,3.124433160E-1,1.047523117E1,1.051797243E1
2.826909218E0,8.942343593E-1,3.411737382E-1,1.043213558E1,1.047594900E1
2.829420885E0,8.894459605E-1,3.268085420E-1,1.044650078E1,1.048938971E1
2.831932656E0,8.894459605E-1,3.124433160E-1,1.045607758E1,1.049849004E1
2.834444583E0,8.750807047E-1,2.837128937E-1,1.042734718E1,1.046784737E1
2.836956666E0,8.367735147E-1,2.501940727E-1,1.042255878E1,1.045908785E1
2.839468906E0,8.176198602E-1,2.166752517E-1,1.039861679E1,1.043296130E1
2.841981302E0,8.032546639E-1,1.831564307E-1,1.039382839E1,1.042642954E1
2.844493854E0,7.649474144E-1,1.209071875E-1,1.036509800E1,1.039398959E1
2.847006562E0,7.505822182E-1,6.344634295E-2,1.031242561E1,1.033989947E1
2.849519375E0,7.649474144E-1,2.992752194E-2,1.028848362E1,1.031692471E1
2.852032291E0,7.697358727E-1,-2.274491638E-2,1.029327202E1,1.032203756E1
2.854545260E0,8.080430627E-1,-7.062894851E-2,1.033157921E1,1.036337064E1
2.857058281E0,8.463503122E-1,-1.280897856E-1,1.040819359E1,1.044333326E1
2.859571302E0,8.798691034E-1,-2.142810524E-1,1.050396156E1,1.054292628E1
2.862084323E0,8.990227580E-1,-2.908954918E-1,1.058536434E1,1.062745503E1
2.864597343E0,9.133879542E-1,-3.579331636E-1,1.068592072E1,1.073085715E1
2.867110000E0,9.421183467E-1,-4.058171809E-1,1.075774670E1,1.080654378E1
2.869622656E0,9.564836025E-1,-4.584896266E-1,1.083914948E1,1.089092443E1
2.872135260E0,9.947907925E-1,-4.967968464E-1,1.092534065E1,1.098177965E1
2.874647656E0,1.042674899E0,-5.015852451E-1,1.098280144E1,1.104358122E1
2.877160052E0,1.076193690E0,-5.207388401E-1,1.101153183E1,1.107624463E1
2.879672291E0,1.128866076E0,-5.159504414E-1,1.101632023E1,1.108602070E1
2.882184531E0,1.191115379E0,-4.824316502E-1,1.104983902E1,1.112431744E1
2.884696771E0,1.267729759E0,-4.584896266E-1,1.107856941E1,1.116028905E1
2.887209010E0,1.344344258E0,-4.153940082E-1,1.110729980E1,1.119606728E1
2.889721302E0,1.406593442E0,-3.962403834E-1,1.114081860E1,1.123625162E1
2.892233646E0,1.483207941E0,-3.770867586E-1,1.116954994E1,1.127390554E1
2.894746041E0,1.559822440E0,-3.675099611E-1,1.119828033E1,1.131236457E1
2.897258489E0,1.646013618E0,-3.675099611E-1,1.123179913E1,1.135771702E1
2.899770989E0,1.736993313E0,-4.106055796E-1,1.123658752E1,1.137746202E1
2.902283541E0,1.823184609E0,-4.393360019E-1,1.122222233E1,1.137784216E1
2.904796198E0,1.909375906E0,-4.776432514E-1,1.122222233E1,1.139351278E1
2.907308958E0,2.009932280E0,-5.159504414E-1,1.121264553E1,1.140304575E1
2.909821823E0,2.110488892E0,-5.638344884E-1,1.121264553E1,1.142346237E1
2.912334791E0,2.191891670E0,-6.069301367E-1,1.119349194E1,1.142221585E1
2.914847864E0,2.278082848E0,-6.308721304E-1,1.119828033E1,1.144504887E1
2.917360989E0,2.349909067E0,-6.260837317E-1,1.120785713E1,1.146865794E1
2.919874114E0,2.407369852E0,-6.069301367E-1,1.123658752E1,1.150759284E1
2.922386771E0,2.460042238E0,-5.781996846E-1,1.126531792E1,1.154528087E1
2.924899323E0,2.493561029E0,-5.542576909E-1,1.128925991E1,1.157464632E1
2.927411875E0,2.517503023E0,-5.877765417E-1,1.105462742E1,1.135288906E1
2.929924427E0,2.527079821E0,-6.356605291E-1,1.060451794E1,1.091998157E1
2.932437031E0,2.560598612E0,-5.590460896E-1,1.085830307E1,1.117013623E1
2.934949687E0,2.613271236E0,-4.776432514E-1,1.128925991E1,1.159761695E1
2.937462396E0,2.670732021E0,-4.058171809E-1,1.169148540E1,1.199951366E1
2.939975156E0,2.704250813E0,-3.387795389E-1,1.202188492E1,1.232694046E1
2.942487968E0,2.699462414E0,-2.382230759E-1,1.227567101E1,1.257123487E1
2.945000833E0,2.665943623E0,-1.663970202E-1,1.247678375E1,1.275950924E1
2.947513750E0,2.661155224E0,-9.935937077E-2,1.266831970E1,1.294518997E1
2.950026718E0,2.656366825E0,-4.668693244E-2,1.291731644E1,1.318770368E1
2.952539739E0,2.646790028E0,-6.105214357E-2,1.300829601E1,1.327497608E1
2.955052812E0,2.622848034E0,-1.041477770E-1,1.297477722E1,1.323763659E1
2.957565937E0,2.613271236E0,-1.520318091E-1,1.295083523E1,1.321273754E1
2.960079114E0,2.622848034E0,-2.190694511E-1,1.298914242E1,1.325311827E1
2.962592291E0,2.632424831E0,-3.004723191E-1,1.306096840E1,1.332699665E1
2.965105468E0,2.646790028E0,-4.010287821E-1,1.317110252E1,1.344039669E1
2.967618646E0,2.646790028E0,-4.967968464E-1,1.329081249E1,1.356089972E1
2.970131614E0,2.627636433E0,-5.877765417E-1,1.341052246E1,1.367816023E1
2.972644583E0,2.584540844E0,-7.074866295E-1,1.350150204E1,1.376484457E1
2.975157552E0,2.512714624E0,-7.936778665E-1,1.354938602E1,1.380324313E1
2.977670521E0,2.416946650E0,-8.607155085E-1,1.358769321E1,1.382779336E1
2.980183489E0,2.297236443E0,-9.325415492E-1,1.357811642E1,1.380261477E1
2.982696458E0,2.172738075E0,-1.009155989E0,1.354938602E1,1.375954389E1
2.985209427E0,2.005143881E0,-1.047463298E0,1.345840645E1,1.364721530E1
2.987722396E0,1.818396211E0,-1.080982089E0,1.336742687E1,1.353377953E1
2.990235364E0,1.636436820E0,-1.114500880E0,1.326208210E1,1.340905885E1
2.992748333E0,1.459265947E0,-1.128866076E0,1.315194893E1,1.328072123E1
2.995261302E0,1.253364563E0,-1.148019671E0,1.303223801E1,1.314260626E1
2.997774271E0,1.085770488E0,-1.167173386E0,1.289337444E1,1.299154709E1
3.000287239E0,9.612720013E-1,-1.210268974E0,1.274014568E1,1.283355395E1
3.002800208E0,7.888894677E-1,-1.234210968E0,1.258691692E1,1.267186257E1
3.005313177E0,6.500257850E-1,-1.258152962E0,1.244805336E1,1.252834845E1
3.007826093E0,5.015852451E-1,-1.272518158E0,1.226130581E1,1.233736237E1
3.010339010E0,3.818751574E-1,-1.301248670E0,1.208892250E1,1.216474924E1
3.012851875E0,2.573766708E-1,-1.315613866E0,1.188302135E1,1.195839785E1
3.015364635E0,1.472434103E-1,-1.334767461E0,1.171063900E1,1.178738099E1
3.017877396E0,1.795651205E-2,-1.339555860E0,1.142333508E1,1.150162235E1
3.020390000E0,-5.865794048E-2,-1.310825467E0,1.120785713E1,1.128440365E1
3.022902448E0,-1.209071875E-1,-1.262941360E0,1.111687660E1,1.118903860E1
3.025414791E0,-1.831564307E-1,-1.200692177E0,1.099237823E1,1.105927607E1
3.027927135E0,-2.741360962E-1,-1.157596469E0,1.087266827E1,1.093755436E1
3.030439479E0,-3.411737382E-1,-1.095347285E0,1.077211189E1,1.083303189E1
3.032951823E0,-3.986345828E-1,-1.042674899E0,1.064761353E1,1.070596816E1
3.035464218E0,-4.465186298E-1,-9.660604000E-1,1.051353836E1,1.056726741E1
3.037976666E0,-4.848258495E-1,-9.038111567E-1,1.039861679E1,1.044907469E1
3.040489166E0,-5.231330991E-1,-8.607155085E-1,1.026454163E1,1.031384091E1
3.043001771E0,-5.470750928E-1,-8.128314614E-1,1.013525391E1,1.018250254E1
3.045514479E0,-5.662286878E-1,-7.457938194E-1,1.002512074E1,1.006875708E1
3.048027291E0,-5.327098966E-1,-6.883329749E-1,9.958083153E0,9.996049329E0
3.050540208E0,-5.039794445E-1,-6.308721304E-1,9.891045570E0,9.923949688E0
3.053053177E0,-4.752490520E-1,-5.781996846E-1,9.838373184E0,9.866801075E0
3.055566198E0,-4.321534038E-1,-5.494692922E-1,9.800065994E0,9.824966492E0
3.058079271E0,-3.890577853E-1,-5.351040959E-1,9.800065994E0,9.822372211E0
3.060592396E0,-3.172317147E-1,-5.111620426E-1,9.819219589E0,9.837631622E0
3.063105573E0,-2.358288616E-1,-4.776432514E-1,9.828796387E0,9.843220852E0
3.065618802E0,-1.113303825E-1,-4.489128292E-1,9.867103577E0,9.877937547E0
3.068132031E0,2.274491638E-2,-4.297592044E-1,9.905410767E0,9.914755305E0
3.070645260E0,1.520318091E-1,-4.249708056E-1,9.919775963E0,9.930038721E0
3.073158489E0,2.525882721E-1,-4.297592044E-1,9.900622368E0,9.913163828E0
3.075671718E0,3.579331636E-1,-4.441244006E-1,9.876680374E0,9.893137917E0
3.078184791E0,4.680664241E-1,-4.872200489E-1,9.862315178E0,9.885430199E0
3.080697864E0,5.829881430E-1,-5.351040959E-1,9.828796387E0,9.860600893E0
3.083210781E0,6.979097724E-1,-5.781996846E-1,9.780912399E0,9.822812239E0
3.085723541E0,8.224082589E-1,-6.165069342E-1,9.713874817E0,9.768101151E0
3.088236302E0,9.229647517E-1,-6.165069342E-1,9.642048836E0,9.705722564E0
3.090749010E0,1.037886381E0,-6.165069342E-1,9.589376450E0,9.665062319E0
3.093261718E0,1.124077678E0,-5.877765417E-1,9.541492462E0,9.625440784E0
3.095774427E0,1.215057373E0,-5.829881430E-1,9.488820076E0,9.584046433E0
3.098287135E0,1.272518158E0,-6.069301367E-1,9.455301285E0,9.559832061E0
3.100799843E0,1.329979062E0,-6.596025825E-1,9.445724487E0,9.561675113E0
3.103312552E0,1.358709455E0,-6.979097724E-1,9.421782494E0,9.544797263E0
3.105825260E0,1.411381960E0,-7.697358727E-1,9.402628899E0,9.539073464E0
3.108337968E0,1.464054346E0,-8.559271097E-1,9.393052101E0,9.544919807E0
3.110850521E0,1.545457244E0,-9.085995555E-1,9.364321709E0,9.534385786E0
3.113363021E0,1.602918029E0,-9.708487988E-1,9.306860924E0,9.493658613E0
3.115875521E0,1.650802016E0,-1.028309584E0,9.249400139E0,9.451664976E0
3.118388021E0,1.693897724E0,-1.071405292E0,9.211092949E0,9.426634188E0
3.120900521E0,1.756146908E0,-1.095347285E0,9.177573204E0,9.408065027E0
3.123413021E0,1.784877419E0,-1.119289279E0,9.120112419E0,9.360290937E0
3.125925521E0,1.823184609E0,-1.128866076E0,9.091382027E0,9.340854773E0
3.128438021E0,1.851915002E0,-1.119289279E0,9.077016830E0,9.331378902E0
3.130950521E0,1.880645394E0,-1.109712481E0,9.033921242E0,9.294085318E0
3.133463021E0,1.909375906E0,-1.085770488E0,8.990825653E0,9.255244990E0
3.135975521E0,1.952471495E0,-1.066616893E0,8.952518463E0,9.224825384E0
3.138488021E0,1.976413488E0,-1.066616893E0,8.918999672E0,9.197414692E0
3.141000521E0,2.019509077E0,-1.033097982E0,8.871115685E0,9.156549669E0
3.143513021E0,2.038662672E0,-1.013944387E0,8.828020096E0,9.116916558E0
3.146025312E0,2.076969862E0,-9.756371975E-1,8.799289703E0,9.093578560E0
3.148537552E0,2.091335297E0,-9.421183467E-1,8.756194115E0,9.051641049E0
3.151049791E0,2.120065689E0,-9.181763530E-1,8.713098526E0,9.014200589E0
3.153562031E0,2.148796082E0,-8.942343593E-1,8.703521729E0,9.009343493E0
3.156074271E0,2.201468468E0,-8.559271097E-1,8.670002937E0,8.985990517E0
3.158586510E0,2.211045265E0,-8.080430627E-1,8.655637741E0,8.970045678E0
3.161098750E0,2.234987259E0,-7.745242715E-1,8.650849342E0,8.968402881E0
3.163610989E0,2.263717651E0,-7.553706169E-1,8.708310127E0,9.029378032E0
3.166123229E0,2.321178436E0,-7.122750282E-1,8.760982513E0,9.091205621E0
3.168635468E0,2.373851061E0,-6.739677787E-1,8.832808495E0,9.171036328E0
3.171147708E0,2.450465441E0,-6.596025825E-1,8.904634476E0,9.259177695E0
3.173659948E0,2.512714624E0,-6.260837317E-1,8.938153267E0,9.305713269E0
3.176172187E0,2.546233416E0,-5.973533392E-1,8.971672058E0,9.345107551E0
3.178684479E0,2.589329243E0,-5.973533392E-1,8.990825653E0,9.375308148E0
3.181196823E0,2.646790028E0,-5.877765417E-1,8.976460457E0,9.376983579E0
3.183709218E0,2.670732021E0,-5.829881430E-1,9.014767647E0,9.420123164E0
3.186221666E0,2.728192806E0,-5.973533392E-1,9.038709641E0,9.460345605E0
3.188734166E0,2.756923199E0,-5.877765417E-1,9.043498039E0,9.472642903E0
3.191246718E0,2.766499996E0,-6.069301367E-1,9.072228432E0,9.504063086E0
3.193759323E0,2.776076794E0,-6.308721304E-1,9.077016830E0,9.512982526E0
3.196271979E0,2.776076794E0,-6.596025825E-1,9.057863235E0,9.496660693E0
3.198784687E0,2.766499996E0,-6.500257850E-1,9.053074837E0,9.488636348E0
3.201297396E0,2.752134800E0,-6.739677787E-1,9.043498039E0,9.476989781E0
3.203810104E0,2.723404408E0,-6.739677787E-1,8.981248856E0,9.409250509E0
3.206322812E0,2.670732021E0,-6.883329749E-1,8.928576469E0,9.344842941E0
3.208835312E0,2.627636433E0,-6.979097724E-1,8.856750488E0,9.264641412E0
3.211347656E0,2.565387011E0,-7.122750282E-1,8.775347710E0,9.170347521E0
3.213860000E0,2.503137827E0,-7.553706169E-1,8.646060944E0,9.032754485E0
3.216372343E0,2.440888643E0,-7.841010690E-1,8.555081367E0,8.930966860E0
3.218884687E0,2.345120668E0,-7.697358727E-1,8.488043785E0,8.839625080E0
3.221397031E0,2.268506050E0,-7.697358727E-1,8.401852608E0,8.736689319E0
3.223909427E0,2.201468468E0,-7.601590157E-1,8.377910614E0,8.695613342E0
3.226421875E0,2.120065689E0,-7.074866295E-1,8.382699013E0,8.675532179E0
3.228934375E0,2.029085875E0,-6.643909812E-1,8.377910614E0,8.645692056E0
3.231446927E0,1.938106298E0,-5.973533392E-1,8.353968620E0,8.596620193E0
3.233959531E0,1.871068597E0,-5.351040959E-1,8.349180222E0,8.572983405E0
3.236472187E0,1.799242616E0,-4.584896266E-1,8.344391823E0,8.548471303E0
3.238984896E0,1.751358509E0,-3.627215624E-1,8.320449829E0,8.510505797E0
3.241497656E0,1.713051319E0,-2.956839204E-1,8.277354240E0,8.457929240E0
3.244010468E0,1.708262920E0,-2.477998734E-1,8.267777443E0,8.446047053E0
3.246523333E0,1.713051319E0,-1.663970202E-1,8.286931038E0,8.463773320E0
3.249036198E0,1.717839718E0,-1.280897856E-1,8.258200645E0,8.435950343E0
3.251549062E0,1.708262920E0,-6.584054977E-2,8.253412247E0,8.428600767E0
3.254061927E0,1.732204914E0,-1.795651205E-2,8.243835449E0,8.423875546E0
3.256574791E0,1.794454217E0,2.035071515E-2,8.253412247E0,8.446259160E0
3.259087656E0,1.832761407E0,7.302315533E-2,8.262989044E0,8.464120433E0
3.261600521E0,1.861491799E0,1.256955862E-1,8.262989044E0,8.471005787E0
3.264113385E0,1.904587507E0,1.687912196E-1,8.258200645E0,8.476663374E0
3.266626093E0,1.933317900E0,2.262520641E-1,8.267777443E0,8.493824341E0
3.269138385E0,1.985990286E0,2.789244950E-1,8.262989044E0,8.502878585E0
3.271650677E0,2.038662672E0,3.172317147E-1,8.282142639E0,8.535260286E0
3.274162968E0,2.076969862E0,3.603273630E-1,8.310873032E0,8.574045146E0
3.276675260E0,2.100912094E0,4.225766063E-1,8.325238228E0,8.596626906E0
3.279187552E0,2.124854088E0,4.656722248E-1,8.334815025E0,8.614000059E0
3.281699843E0,2.139219284E0,5.087678432E-1,8.349180222E0,8.633881759E0
3.284211979E0,2.196680069E0,5.374982953E-1,8.406641006E0,8.705510942E0
3.286723958E0,2.153584480E0,5.805938840E-1,8.464101791E0,8.753058580E0
3.289235885E0,2.129642487E0,6.476315856E-1,8.555081367E0,8.839922002E0
3.291747812E0,2.163161278E0,6.859387755E-1,8.641272545E0,8.934280604E0
3.294259739E0,2.206256866E0,7.098808289E-1,8.722675323E0,9.025329077E0
3.296771666E0,2.258929253E0,7.433996201E-1,8.799289703E0,9.114982372E0
3.299283593E0,2.306813240E0,7.864952683E-1,8.885480881E0,9.213670963E0
3.301795521E0,2.364274263E0,8.152256608E-1,8.957306862E0,9.299878058E0
3.304307500E0,2.426523447E0,7.817068696E-1,9.005190849E0,9.359088839E0
3.306819531E0,2.479195833E0,7.481880188E-1,9.062651634E0,9.425383384E0
3.309331614E0,2.536656618E0,7.242460251E-1,9.105747223E0,9.480178880E0
3.311843750E0,2.579752445E0,6.763619781E-1,9.139266014E0,9.520439668E0
3.314355937E0,2.613271236E0,6.428431273E-1,9.167996407E0,9.554820352E0
3.316868229E0,2.627636433E0,6.093243361E-1,9.182361603E0,9.570345551E0
3.319380625E0,2.622848034E0,5.614402890E-1,9.211092949E0,9.593684398E0
3.321893125E0,2.642001629E0,5.231330991E-1,9.249400139E0,9.633547829E0
3.324405729E0,2.637213230E0,4.944026470E-1,9.230246544E0,9.612324321E0
3.326918437E0,2.608482838E0,4.608838260E-1,9.235034943E0,9.607417291E0
3.329431250E0,2.574964046E0,4.656722248E-1,9.239823341E0,9.603209143E0
3.331944166E0,2.579752445E0,4.800374508E-1,9.230246544E0,9.595989261E0
3.334457135E0,2.527079821E0,4.896142483E-1,9.230246544E0,9.582447798E0
3.336970156E0,2.479195833E0,4.944026470E-1,9.225458145E0,9.565559259E0
3.339483177E0,2.460042238E0,4.800374508E-1,9.191938400E0,9.527537737E0
3.341996198E0,2.436100245E0,4.800374508E-1,9.172784805E0,9.502894372E0
3.344509218E0,2.421735048E0,4.656722248E-1,9.172784805E0,9.498506848E0
3.347021718E0,2.426523447E0,4.560954273E-1,9.187150002E0,9.513136403E0
3.349534218E0,2.421735048E0,4.034229815E-1,9.187150002E0,9.509536051E0
3.352046718E0,2.407369852E0,3.699041605E-1,9.177573204E0,9.495267695E0
3.354559218E0,2.421735048E0,3.363853395E-1,9.172784805E0,9.493046762E0
3.357071718E0,2.407369852E0,3.124433160E-1,9.206304550E0,9.520981772E0
3.359584218E0,2.426523447E0,3.028665185E-1,9.239823341E0,9.557932807E0
3.362096718E0,2.469619036E0,3.028665185E-1,9.282918930E0,9.610584278E0
3.364609218E0,2.483984232E0,2.885012925E-1,9.316437721E0,9.646212857E0
3.367121718E0,2.498349428E0,2.932897210E-1,9.373898506E0,9.705552119E0
3.369634218E0,2.527079821E0,3.172317147E-1,9.416994095E0,9.755334241E0
3.372146718E0,2.507926226E0,2.980781198E-1,9.455301285E0,9.786790429E0
3.374659218E0,2.507926226E0,2.932897210E-1,9.488820076E0,9.819033519E0
3.377171718E0,2.503137827E0,2.885012925E-1,9.527127266E0,9.854698672E0
3.379684218E0,2.517503023E0,2.885012925E-1,9.594164848E0,9.923157441E0
3.382196718E0,2.536656618E0,2.885012925E-1,9.675567627E0,1.000672118E1
3.384709218E0,2.555810213E0,2.741360962E-1,9.756970406E0,1.008988543E1
3.387221718E0,2.546233416E0,2.549824715E-1,9.804854393E0,1.013328626E1
3.389734218E0,2.541445017E0,2.358288616E-1,9.776124001E0,1.010381901E1
3.392246718E0,2.546233416E0,8.259996027E-2,9.316437721E0,9.658474992E0
3.394759218E0,2.536656618E0,4.908113554E-2,9.306860924E0,9.646486200E0
3.397271718E0,2.565387011E0,8.738835901E-2,9.637260437E0,9.973246010E0
3.399784218E0,2.584540844E0,9.696517140E-2,9.977236748E0,1.030701250E1
3.402296718E0,2.594117641E0,1.161187813E-1,1.027890682E1,1.060183264E1
3.404809218E0,2.584540844E0,1.352723986E-1,1.043692398E1,1.075302433E1
3.407321771E0,2.527079821E0,1.831564307E-1,1.059015274E1,1.088903181E1
3.409834375E0,2.436100245E0,2.597708702E-1,1.075295830E1,1.102851656E1
3.412347031E0,2.354697466E0,2.837128937E-1,1.070986271E1,1.096933236E1
3.414859739E0,2.297236443E0,2.980781198E-1,1.059494114E1,1.084522584E1
3.417372500E0,2.244564056E0,2.837128937E-1,1.046565437E1,1.070740315E1
3.419885312E0,2.225410461E0,2.645592988E-1,1.037946320E1,1.061864867E1
3.422398177E0,2.225410461E0,2.358288616E-1,1.032200241E1,1.056180859E1
3.424911041E0,2.225410461E0,2.023100406E-1,1.033636761E1,1.057515373E1
3.427423906E0,2.234987259E0,1.831564307E-1,1.040340519E1,1.064234720E1
3.429936771E0,2.230198860E0,1.544260085E-1,1.045607758E1,1.069238947E1
3.432449635E0,2.239775658E0,1.113303825E-1,1.053748035E1,1.077346192E1
3.434962500E0,2.239775658E0,8.738835901E-2,1.060451794E1,1.083882062E1
3.437475364E0,2.230198860E0,9.696517140E-2,1.067634392E1,1.090722277E1
3.439988229E0,2.211045265E0,9.696517140E-2,1.073380470E1,1.095959337E1
3.442501093E0,2.201468468E0,9.217676520E-2,1.074338150E1,1.096700534E1
3.445013958E0,2.206256866E0,8.259996027E-2,1.074338150E1,1.096789124E1
3.447526823E0,2.187103271E0,9.217676520E-2,1.068113232E1,1.090314197E1
3.450039687E0,2.158372879E0,9.217676520E-2,1.060930634E1,1.082702410E1
3.452552552E0,2.120065689E0,9.696517140E-2,1.056621075E1,1.077723946E1
3.455065416E0,2.110488892E0,7.781155407E-2,1.052311516E1,1.073294790E1
3.457578281E0,2.096123695E0,6.823474914E-2,1.049917316E1,1.070658805E1
3.460091146E0,2.096123695E0,7.781155407E-2,1.047523117E1,1.068317637E1
3.462604010E0,2.115277290E0,3.950432688E-2,1.046086597E1,1.067266019E1
3.465116875E0,2.129642487E0,1.556231081E-2,1.044650078E1,1.066137880E1
3.467629739E0,2.139219284E0,1.077390742E-2,1.041298199E1,1.063045479E1
3.470142604E0,2.163161278E0,-1.316810958E-2,1.037467480E1,1.059779776E1
3.472655468E0,2.182314873E0,-4.189852998E-2,1.035552120E1,1.058305594E1
3.475168333E0,2.196680069E0,-5.626374111E-2,1.032200241E1,1.055330767E1
3.477681198E0,2.206256866E0,-8.020575345E-2,1.026933002E1,1.050395837E1
3.480194062E0,2.230198860E0,-9.935937077E-2,1.021186924E1,1.045303461E1
3.482706927E0,2.234987259E0,-1.233013868E-1,1.015440750E1,1.039819037E1
3.485219791E0,2.215833664E0,-1.472434103E-1,1.007779312E1,1.031956945E1
3.487732656E0,2.206256866E0,-1.855506301E-1,1.000596714E1,1.024799379E1
3.490245468E0,2.191891670E0,-1.951274425E-1,9.943717957E0,1.018430118E1
3.492757968E0,2.191891670E0,-2.238578647E-1,9.862315178E0,1.010543231E1
3.495270468E0,2.187103271E0,-2.334346622E-1,9.800065994E0,1.004386409E1
3.497782760E0,2.158372879E0,-2.334346622E-1,9.713874817E0,9.953513409E0
3.500294687E0,2.148796082E0,-2.238578647E-1,9.632472038E0,9.871775651E0
3.502806614E0,2.120065689E0,-2.094926536E-1,9.579799652E0,9.813823265E0
3.505318541E0,2.086546898E0,-1.759738177E-1,9.522338867E0,9.749850370E0
3.507830521E0,2.072181463E0,-1.280897856E-1,9.474454880E0,9.699259677E0
3.510342604E0,2.043451071E0,-8.020575345E-2,9.464878082E0,9.683286754E0
3.512854791E0,2.024297476E0,-4.668693244E-2,9.412205696E0,9.627542574E0
3.515367135E0,2.014720678E0,-8.379706182E-3,9.393052101E0,9.606695447E0
3.517879635E0,1.981201887E0,2.513911761E-2,9.383475304E0,9.590380684E0
3.520392343E0,1.957259893E0,7.781155407E-2,9.388263702E0,9.590433581E0
3.522905260E0,1.942894697E0,1.065419763E-1,9.388263702E0,9.587788397E0
3.525418333E0,1.918952703E0,1.544260085E-1,9.373898506E0,9.569545448E0
3.527931562E0,1.895010591E0,1.831564307E-1,9.359533310E0,9.551202814E0
3.530444948E0,1.885433793E0,2.070984542E-1,9.354744911E0,9.545103599E0
3.532958437E0,1.842338204E0,2.501940727E-1,9.359533310E0,9.542414313E0
3.535471979E0,1.804031014E0,2.693476975E-1,9.335591316E0,9.512115501E0
3.537985521E0,1.780089021E0,2.932897210E-1,9.316437721E0,9.489507237E0
3.540499062E0,1.780089021E0,3.124433160E-1,9.311649323E0,9.485417801E0
3.543011718E0,1.741781712E0,3.268085420E-1,9.268553734E0,9.436455673E0
3.545524218E0,1.736993313E0,3.603273630E-1,9.215881348E0,9.385065295E0
3.548036718E0,1.708262920E0,3.842693865E-1,9.172784805E0,9.338404909E0
3.550549218E0,1.674744129E0,4.177882075E-1,9.110535622E0,9.272603421E0
3.553061718E0,1.626860023E0,4.417302012E-1,9.033921242E0,9.189860288E0
3.555574218E0,1.593341231E0,4.656722248E-1,8.990825653E0,9.142785835E0
3.558086718E0,1.569399238E0,5.039794445E-1,8.914211273E0,9.065328007E0
3.560599218E0,1.535880446E0,5.279214978E-1,8.851962090E0,8.999714589E0
3.563111718E0,1.507149935E0,5.374982953E-1,8.784924507E0,8.929462690E0
3.565624218E0,1.478419542E0,5.758054852E-1,8.713098526E0,8.856374101E0
3.568136718E0,1.449689150E0,5.997475386E-1,8.636484146E0,8.777821720E0
3.570649218E0,1.411381960E0,6.380547285E-1,8.598176956E0,8.736575979E0
3.573161771E0,1.377863050E0,6.524199843E-1,8.545504570E0,8.680426647E0
3.575674375E0,1.382651448E0,6.763619781E-1,8.502408981E0,8.640610455E0
3.578187031E0,1.387439847E0,7.098808289E-1,8.468890190E0,8.611098720E0
3.580699739E0,1.373074651E0,7.338228226E-1,8.416217804E0,8.559004151E0
3.583212500E0,1.363497853E0,7.577648163E-1,8.368333817E0,8.512481705E0
3.585725260E0,1.334767461E0,8.008604646E-1,8.368333817E0,8.511873620E0
3.588238021E0,1.315613866E0,8.439561129E-1,8.320449829E0,8.465990026E0
3.590750781E0,1.282094955E0,8.535329103E-1,8.291719437E0,8.433557797E0
3.593263541E0,1.277306557E0,8.822633028E-1,8.258200645E0,8.402843476E0
3.595776041E0,1.258152962E0,8.870517015E-1,8.224681854E0,8.367508661E0
3.598288541E0,1.258152962E0,9.157821536E-1,8.195950508E0,8.342374396E0
3.600801041E0,1.272518158E0,9.109937549E-1,8.176796913E0,8.325215904E0
3.603313541E0,1.262941360E0,9.205705523E-1,8.148066521E0,8.296593219E0
3.605826041E0,1.277306557E0,9.301473498E-1,8.104970932E0,8.257556536E0
3.608338541E0,1.296460271E0,9.493009448E-1,8.061875343E0,8.220451056E0
3.610851041E0,1.286883354E0,9.301473498E-1,7.985261440E0,8.141599544E0
3.613363541E0,1.267729759E0,9.349357486E-1,7.932588577E0,8.087472110E0
3.615876093E0,1.262941360E0,9.301473498E-1,7.875127792E0,8.029809009E0
3.618388646E0,1.286883354E0,9.732429981E-1,7.822455406E0,7.987119586E0
3.620901198E0,1.306037068E0,9.780313969E-1,7.784148216E0,7.953316396E0
3.623413750E0,1.296460271E0,9.971849918E-1,7.769783020E0,7.940070234E0
3.625926302E0,1.277306557E0,1.006761789E0,7.750629425E0,7.919427872E0
3.628438698E0,1.272518158E0,1.016338587E0,7.755417824E0,7.924566373E0
3.630950781E0,1.315613866E0,1.064222693E0,7.764994621E0,7.947235447E0
3.633462864E0,1.344344258E0,1.092953086E0,7.803301811E0,7.993330163E0
3.635974948E0,1.377863050E0,1.116895080E0,7.803301811E0,8.002342180E0
3.638487031E0,1.416170359E0,1.121683478E0,7.827243805E0,8.033022961E0
3.640999166E0,1.454477549E0,1.131260276E0,7.846397400E0,8.059851544E0
3.643511354E0,1.483207941E0,1.131260276E0,7.855974197E0,8.074403148E0
3.646023593E0,1.531091928E0,1.131260276E0,7.894281387E0,8.120570850E0
3.648535885E0,1.574187636E0,1.145625472E0,7.913434982E0,8.149415786E0
3.651048229E0,1.607706428E0,1.126471877E0,7.975684643E0,8.213720495E0
3.653560625E0,1.631648421E0,1.116895080E0,8.042721748E0,8.282216147E0
3.656073125E0,1.684320927E0,1.097741485E0,8.090605736E0,8.336658475E0
3.658585729E0,1.708262920E0,1.069011092E0,8.128912926E0,8.374972972E0
3.661098437E0,1.736993313E0,1.069011092E0,8.162431717E0,8.413395392E0
3.663611250E0,1.736993313E0,1.073799491E0,8.191162109E0,8.441879401E0
3.666124166E0,1.756146908E0,1.083376288E0,8.224681854E0,8.479572380E0
3.668637239E0,1.756146908E0,1.092953086E0,8.258200645E0,8.513311712E0
3.671150468E0,1.756146908E0,1.102529883E0,8.286931038E0,8.542414772E0
3.673663854E0,1.756146908E0,1.078587890E0,8.339603424E0,8.590482470E0
3.676177343E0,1.741781712E0,1.045069098E0,8.368333817E0,8.611328807E0
3.678690937E0,1.732204914E0,1.049857497E0,8.382699013E0,8.623942101E0
3.681204583E0,1.722628117E0,1.045069098E0,8.416217804E0,8.654036005E0
3.683718281E0,1.698686123E0,1.045069098E0,8.483255386E0,8.714546799E0
3.686231979E0,1.660378933E0,1.035492182E0,8.550292969E0,8.771351784E0
3.688745677E0,1.665167332E0,1.049857497E0,8.583811760E0,8.806634280E0
3.691258958E0,1.650802016E0,1.054645896E0,8.655637741E0,8.874541676E0
3.693772187E0,1.617283225E0,1.073799491E0,8.674791336E0,8.889356282E0
3.696285364E0,1.602918029E0,1.064222693E0,8.713098526E0,8.923004095E0
3.698798281E0,1.593341231E0,1.073799491E0,8.751405716E0,8.959848416E0
3.701311198E0,1.598129630E0,1.045069098E0,8.784924507E0,8.990054857E0
3.703824114E0,1.607706428E0,1.040280581E0,8.823231697E0,9.028638946E0
3.706337031E0,1.622071624E0,1.016338587E0,8.851962090E0,9.056560788E0
3.708849948E0,1.636436820E0,1.006761789E0,8.904634476E0,9.109555967E0
3.711362864E0,1.641225219E0,1.001973391E0,8.928576469E0,9.133293418E0
3.713875781E0,1.660378933E0,1.011550188E0,8.928576469E0,9.137809899E0
3.716388698E0,1.669955730E0,1.006761789E0,8.933364868E0,9.143704354E0
3.718901614E0,1.655590534E0,1.011550188E0,8.947730064E0,9.155658748E0
3.721414531E0,1.660378933E0,1.030703783E0,8.947730064E0,9.158661572E0
3.723927448E0,1.655590534E0,1.049857497E0,8.938153267E0,9.150615531E0
3.726440312E0,1.636436820E0,1.078587890E0,8.914211273E0,9.127126597E0
3.728953177E0,1.593341231E0,1.126471877E0,8.861538887E0,9.073838582E0
3.731465781E0,1.588552833E0,1.150413871E0,8.847173691E0,9.061977405E0
3.733978385E0,1.626860023E0,1.131260276E0,8.823231697E0,9.042999554E0
3.736490989E0,1.684320927E0,1.136048675E0,8.804078102E0,9.035448788E0
3.739003593E0,1.727416515E0,1.121683478E0,8.679579735E0,8.920607940E0
3.741516198E0,1.741781712E0,1.112106681E0,8.483255386E0,8.731334763E0
3.744028802E0,1.760935307E0,1.016338587E0,8.119336128E0,8.370033240E0
3.746541458E0,1.818396211E0,1.011550188E0,8.243835449E0,8.502389163E0
3.749054166E0,1.875856996E0,1.016338587E0,8.516774178E0,8.779933142E0
3.751566927E0,1.938106298E0,1.035492182E0,8.727463722E0,8.999840171E0
3.754079739E0,2.000355482E0,1.049857497E0,8.861538887E0,9.144970982E0
3.756592604E0,2.024297476E0,1.088164687E0,8.914211273E0,9.205707212E0
3.759105521E0,1.995567083E0,1.131260276E0,8.871115685E0,9.162899720E0
3.761618541E0,1.971625090E0,1.164779186E0,8.971672058E0,9.259315070E0
3.764131666E0,1.952471495E0,1.207874775E0,9.029132843E0,9.316455673E0
3.766644896E0,1.942894697E0,1.227028370E0,8.952518463E0,9.242728237E0
3.769158229E0,1.933317900E0,1.203086376E0,8.847173691E0,9.135514066E0
3.771671614E0,1.933317900E0,1.207874775E0,8.794501305E0,9.085149023E0
3.774185052E0,1.976413488E0,1.212663174E0,8.775347710E0,9.076535114E0
3.776698541E0,2.019509077E0,1.193509579E0,8.808866501E0,9.115865897E0
3.779212083E0,2.043451071E0,1.155202270E0,8.885480881E0,9.190318550E0
3.781725625E0,2.062604666E0,1.159990668E0,8.952518463E0,9.259994773E0
3.784239166E0,2.062604666E0,1.169567585E0,9.033921242E0,9.339912170E0
3.786752708E0,2.086546898E0,1.131260276E0,9.124900818E0,9.428533433E0
3.789265625E0,2.096123695E0,1.078587890E0,9.215881348E0,9.512599823E0
3.791778541E0,2.105700493E0,1.049857497E0,9.201516151E0,9.497582577E0
3.794291458E0,2.100912094E0,9.636662006E-1,9.029132843E0,9.320285622E0
3.796804375E0,2.067393064E0,8.870517015E-1,8.895057678E0,9.175130838E0
3.799317291E0,2.053027868E0,8.822633028E-1,9.077016830E0,9.348023668E0
3.801830260E0,2.067393064E0,8.487445116E-1,9.388263702E0,9.650594628E0
3.804343281E0,2.072181463E0,8.487445116E-1,9.637260437E0,9.893992723E0
3.806856354E0,2.062604666E0,8.535329103E-1,9.943717957E0,1.019119145E1
3.809369479E0,2.005143881E0,8.583213091E-1,1.006342793E1,1.029708207E1
3.811882604E0,1.942894697E0,8.583213091E-1,1.005385113E1,1.027577140E1
3.814395729E0,1.861491799E0,8.774749041E-1,1.002990913E1,1.023885693E1
3.816908854E0,1.789665818E0,8.678981066E-1,9.986813545E0,1.018295614E1
3.819421979E0,1.708262920E0,8.391677141E-1,9.967659950E0,1.014773913E1
3.821934948E0,1.674744129E0,8.343793154E-1,9.977236748E0,1.015116791E1
3.824447708E0,1.650802016E0,8.104372621E-1,1.003469753E1,1.020181898E1
3.826960312E0,1.626860023E0,7.817068696E-1,1.012567711E1,1.028528444E1
3.829472916E0,1.593341231E0,7.817068696E-1,1.025017643E1,1.040268805E1
3.831985521E0,1.564610839E0,7.577648163E-1,1.038425159E1,1.052876516E1
3.834498125E0,1.531091928E0,7.625532150E-1,1.047523117E1,1.061396241E1
3.837010729E0,1.502361536E0,7.577648163E-1,1.055184555E1,1.068516459E1
3.839523333E0,1.468842745E0,7.481880188E-1,1.060930634E1,1.073660399E1
3.842035937E0,1.464054346E0,7.386112213E-1,1.062845993E1,1.075421602E1
3.844548541E0,1.430535555E0,7.290344238E-1,1.061888313E1,1.073958110E1
3.847061146E0,1.420958757E0,7.146692276E-1,1.056621075E1,1.068525552E1
3.849573750E0,1.406593442E0,7.098808289E-1,1.052311516E1,1.064041299E1
3.852086354E0,1.416170359E0,7.098808289E-1,1.050874996E1,1.062747830E1
3.854599010E0,1.411381960E0,7.050924301E-1,1.048001957E1,1.059811137E1
3.857111718E0,1.406593442E0,7.194576263E-1,1.043213558E1,1.055109365E1
3.859624479E0,1.392228246E0,7.433996201E-1,1.038425159E1,1.050350530E1
3.862137343E0,1.377863050E0,7.529764175E-1,1.032200241E1,1.044074776E1
3.864650312E0,1.373074651E0,7.625532150E-1,1.025975323E1,1.037927539E1
3.867163385E0,1.382651448E0,7.817068696E-1,1.018313885E1,1.030626545E1
3.869676510E0,1.397016644E0,8.343793154E-1,1.007779312E1,1.020831811E1
3.872189687E0,1.406593442E0,8.774749041E-1,9.967659950E0,1.010458867E1
3.874702916E0,1.411381960E0,9.014169574E-1,9.852738380E0,9.994048487E0
3.877216198E0,1.411381960E0,9.397241473E-1,9.752182007E0,9.898491522E0
3.879729531E0,1.454477549E0,9.684545994E-1,9.632472038E0,9.789684715E0
3.882242916E0,1.468842745E0,1.006761789E0,9.517550468E0,9.682708052E0
3.884756302E0,1.531091928E0,1.035492182E0,9.402628899E0,9.582584033E0
3.887269687E0,1.569399238E0,1.069011092E0,9.297284126E0,9.489219715E0
3.889782916E0,1.602918029E0,1.112106681E0,9.235034943E0,9.438855750E0
3.892295677E0,1.650802016E0,1.136048675E0,9.153631210E0,9.370417185E0
3.894808333E0,1.703474522E0,1.174355984E0,9.077016830E0,9.309842746E0
3.897320989E0,1.746570110E0,1.222239971E0,8.990825653E0,9.240093269E0
3.899833646E0,1.804031014E0,1.236605167E0,8.918999672E0,9.183260608E0
3.902346302E0,1.871068597E0,1.289277673E0,8.851962090E0,9.138947830E0
3.904858958E0,1.933317900E0,1.313219666E0,8.818443298E0,9.122894617E0
3.907371614E0,1.947683096E0,1.375468850E0,8.780136108E0,9.098141243E0
3.909884271E0,1.981201887E0,1.418564558E0,8.741828918E0,9.075079017E0
3.912396927E0,2.024297476E0,1.432929754E0,8.708310127E0,9.054597353E0
3.914909635E0,2.062604666E0,1.485602140E0,8.698733330E0,9.062522456E0
3.917422396E0,2.100912094E0,1.543063045E0,8.670002937E0,9.053387549E0
3.919935208E0,2.115277290E0,1.581370234E0,8.650849342E0,9.045016538E0
3.922448073E0,2.153584480E0,1.605312228E0,8.636484146E0,9.044545974E0
3.924960989E0,2.172738075E0,1.634042621E0,8.617330551E0,9.035998664E0
3.927473906E0,2.201468468E0,1.657984734E0,8.617330551E0,9.047306926E0
3.929986823E0,2.220622063E0,1.667561531E0,8.622118950E0,9.058303317E0
3.932498802E0,2.239775658E0,1.710657120E0,8.612542152E0,9.061943782E0
3.935010781E0,2.244564056E0,1.715445518E0,8.631695747E0,9.082235001E0
3.937522760E0,2.230198860E0,1.725022316E0,8.655637741E0,9.103271591E0
3.940034791E0,2.206256866E0,1.748964310E0,8.708310127E0,9.152109636E0
3.942546875E0,2.187103271E0,1.744175911E0,8.799289703E0,9.233258884E0
3.945059062E0,2.177526474E0,1.720233917E0,8.875904083E0,9.299596742E0
3.947571354E0,2.167949677E0,1.715445518E0,8.976460457E0,9.392529024E0
3.950083750E0,2.110488892E0,1.681926727E0,9.067440033E0,9.460523750E0
3.952596302E0,2.110488892E0,1.701080322E0,9.148842812E0,9.541968477E0
3.955109010E0,2.091335297E0,1.681926727E0,9.225458145E0,9.607894609E0
3.957621875E0,2.053027868E0,1.648407817E0,9.306860924E0,9.672116212E0
3.960134843E0,2.072181463E0,1.624465823E0,9.369110107E0,9.732062959E0
3.962647916E0,2.053027868E0,1.581370234E0,9.412205696E0,9.762441872E0
3.965161093E0,2.067393064E0,1.547851443E0,9.469666481E0,9.815525530E0
3.967674323E0,2.086546898E0,1.504755735E0,9.498396873E0,9.840605212E0
3.970187604E0,2.072181463E0,1.476025343E0,9.541492462E0,9.874850137E0
3.972700885E0,2.076969862E0,1.428141356E0,9.584588051E0,9.910485338E0
3.975214166E0,2.057816267E0,1.370680451E0,9.603741646E0,9.916916168E0
3.977726771E0,2.048239470E0,1.361103654E0,9.613318443E0,9.922891694E0
3.980239114E0,2.029085875E0,1.346738458E0,9.608530045E0,9.912353080E0
3.982751458E0,1.995567083E0,1.322796464E0,9.598953247E0,9.893026934E0
3.985263802E0,1.966836691E0,1.322796464E0,9.608530045E0,9.896569440E0
3.987776198E0,1.938106298E0,1.332373261E0,9.536704063E0,9.822433452E0
3.990288646E0,1.895010591E0,1.318008065E0,9.503185272E0,9.779506159E0
3.992801146E0,1.856703401E0,1.313219666E0,9.455301285E0,9.724948113E0
3.995313698E0,1.804031014E0,1.318008065E0,9.393052101E0,9.655107505E0
3.997826302E0,1.789665818E0,1.332373261E0,9.330802917E0,9.593852476E0
4.000338958E0,1.746570110E0,1.332373261E0,9.258976936E0,9.516006493E0
4.002851666E0,1.717839718E0,1.337161660E0,9.196727753E0,9.450861123E0
4.005364427E0,1.693897724E0,1.346738458E0,9.124900818E0,9.377995996E0
4.007877239E0,1.636436820E0,1.351526856E0,9.072228432E0,9.317181925E0
4.010390052E0,1.617283225E0,1.380257249E0,9.033921242E0,9.280756871E0
4.012902864E0,1.583764434E0,1.394622445E0,8.966883659E0,9.211855628E0
4.015415677E0,1.550245643E0,1.399410844E0,8.933364868E0,9.174236760E0
4.017928281E0,1.531091928E0,1.418564558E0,8.895057678E0,9.136663450E0
4.020440833E0,1.521515131E0,1.428141356E0,8.847173691E0,9.089943803E0
4.022953385E0,1.492784739E0,1.447294950E0,8.799289703E0,9.041602083E0
4.025465781E0,1.487996340E0,1.499967337E0,8.765770912E0,9.016805133E0
4.027978021E0,1.483207941E0,1.509544134E0,8.741828918E0,8.994342785E0
4.030490260E0,1.487996340E0,1.514332533E0,8.717886925E0,8.972674549E0
4.033002500E0,1.487996340E0,1.523909330E0,8.708310127E0,8.964992918E0
4.035514739E0,1.502361536E0,1.547851443E0,8.703521729E0,8.966840288E0
4.038026979E0,1.502361536E0,1.547851443E0,8.689156532E0,8.952897605E0
4.040539271E0,1.531091928E0,1.552639842E0,8.698733330E0,8.967881272E0
4.043051614E0,1.545457244E0,1.533486247E0,8.698733330E0,8.967049666E0
4.045564010E0,1.555034041E0,1.533486247E0,8.717886925E0,8.987283426E0
4.048076510E0,1.564610839E0,1.523909330E0,8.693944931E0,8.964094220E0
4.050589114E0,1.593341231E0,1.528697729E0,8.693944931E0,8.969968310E0
4.053101823E0,1.607706428E0,1.514332533E0,8.703521729E0,8.979377120E0
4.055614583E0,1.641225219E0,1.533486247E0,8.727463722E0,9.011871244E0
4.058127396E0,1.641225219E0,1.543063045E0,8.737040520E0,9.022778997E0
4.060640260E0,1.665167332E0,1.543063045E0,8.794501305E0,9.082790265E0
4.063153125E0,1.689109325E0,1.552639842E0,8.871115685E0,9.162994831E0
4.065665989E0,1.713051319E0,1.562216640E0,8.952518463E0,9.247845829E0
4.068178854E0,1.751358509E0,1.562216640E0,9.033921242E0,9.333783288E0
4.070691718E0,1.770512104E0,1.571793437E0,9.144054413E0,9.445579856E0
4.073204062E0,1.760935307E0,1.576581836E0,9.249400139E0,9.546617535E0
4.075716406E0,1.789665818E0,1.552639842E0,9.359533310E0,9.654763488E0
4.078228750E0,1.823184609E0,1.538274646E0,9.450512886E0,9.746921812E0
4.080741093E0,1.847126603E0,1.519120932E0,9.527127266E0,9.822716479E0
4.083253489E0,1.851915002E0,1.490390539E0,9.594164848E0,9.884272976E0
4.085765937E0,1.856703401E0,1.461660147E0,9.618106842E0,9.904129297E0
4.088278437E0,1.890222192E0,1.404199243E0,9.661202431E0,9.944020709E0
4.090790989E0,1.928529501E0,1.351526856E0,9.699509621E0,9.981299402E0
4.093303593E0,1.966836691E0,1.341950059E0,9.718663216E0,1.000608271E1
4.095816198E0,1.942894697E0,1.351526856E0,9.680356026E0,9.965478284E0
4.098328802E0,1.933317900E0,1.298854470E0,9.704298019E0,9.979886827E0
4.100841406E0,1.981201887E0,1.241393566E0,9.723451614E0,1.000058649E1
4.103354010E0,2.048239470E0,1.150413871E0,9.704298019E0,9.984594987E0
4.105866614E0,2.076969862E0,1.097741485E0,9.742605209E0,1.002183598E1
4.108379218E0,2.053027868E0,1.102529883E0,9.776124001E0,1.005002965E1
4.110891823E0,2.053027868E0,1.064222693E0,9.795277596E0,1.006453956E1
4.113404427E0,2.057816267E0,1.021126986E0,9.824007988E0,1.008902577E1
4.115917031E0,2.057816267E0,1.011550188E0,9.814431190E0,1.007873510E1
4.118429635E0,2.062604666E0,1.006761789E0,9.780912399E0,1.004659916E1
4.120942135E0,2.014720678E0,1.035492182E0,9.747393608E0,1.000714873E1
4.123454635E0,1.981201887E0,1.054645896E0,9.737816811E0,9.993123392E0
4.125967135E0,1.923741102E0,1.078587890E0,9.713874817E0,9.961099117E0
4.128479635E0,1.895010591E0,1.107318282E0,9.728240013E0,9.972756523E0
4.130992135E0,1.861491799E0,1.145625472E0,9.737816811E0,9.980114512E0
4.133504635E0,1.813607812E0,1.183932781E0,9.742605209E0,9.980442194E0
4.136017135E0,1.765723705E0,1.212663174E0,9.761758804E0,9.994011563E0
4.138529635E0,1.713051319E0,1.231816769E0,9.780912399E0,1.000590649E1
4.141042135E0,1.693897724E0,1.236605167E0,9.809642792E0,1.003132960E1
4.143554635E0,1.669955730E0,1.241393566E0,9.843161583E0,1.006069779E1
4.146067187E0,1.669955730E0,1.227028370E0,9.876680374E0,1.009173751E1
4.148579791E0,1.650802016E0,1.227028370E0,9.914987564E0,1.012609127E1
4.151092448E0,1.650802016E0,1.222239971E0,9.934141159E0,1.014426825E1
4.153605208E0,1.636436820E0,1.222239971E0,9.996390343E0,1.020292193E1
4.156118073E0,1.631648421E0,1.217451572E0,1.005385113E1,1.025789391E1
4.158631041E0,1.622071624E0,1.231816769E0,1.009694672E1,1.030033115E1
4.161144114E0,1.607706428E0,1.255758762E0,1.012567711E1,1.032913292E1
4.163657291E0,1.583764434E0,1.270123959E0,1.015919590E1,1.036005724E1
4.166170521E0,1.540668845E0,1.289277673E0,1.020229244E1,1.039820506E1
4.168683802E0,1.511938334E0,1.284489155E0,1.025017643E1,1.044040166E1
4.171197135E0,1.483207941E0,1.294066072E0,1.029327202E1,1.047978824E1
4.173710521E0,1.459265947E0,1.289277673E0,1.029806042E1,1.048054113E1
4.176223958E0,1.406593442E0,1.294066072E0,1.027411842E1,1.045038858E1
4.178737396E0,1.377863050E0,1.294066072E0,1.023581123E1,1.040888780E1
4.181250833E0,1.344344258E0,1.294066072E0,1.021186924E1,1.038095091E1
4.183764271E0,1.291671872E0,1.303642869E0,1.014004230E1,1.030477360E1
4.186277083E0,1.248576164E0,1.294066072E0,1.008736992E1,1.024639358E1
4.188789583E0,1.191115379E0,1.318008065E0,1.002512074E1,1.018130379E1
4.191301875E0,1.148019671E0,1.318008065E0,9.934141159E0,1.008673659E1
4.193813854E0,1.095347285E0,1.351526856E0,9.862315178E0,1.001457294E1
4.196325833E0,1.037886381E0,1.361103654E0,9.814431190E0,9.962573507E0
4.198837812E0,9.612720013E-1,1.389834046E0,9.756970406E0,9.902229751E0
4.201349843E0,8.894459605E-1,1.447294950E0,9.699509621E0,9.847144950E0
4.203861927E0,8.032546639E-1,1.485602140E0,9.627683640E0,9.774687925E0
4.206374062E0,7.074866295E-1,1.509544134E0,9.570222855E0,9.714341270E0
4.208886302E0,6.356605291E-1,1.562216640E0,9.541492462E0,9.689409866E0
4.211398646E0,5.542576909E-1,1.605312228E0,9.479243279E0,9.630175599E0
4.213911146E0,5.015852451E-1,1.634042621E0,9.440936089E0,9.594423238E0
4.216423802E0,4.584896266E-1,1.657984734E0,9.412205696E0,9.568110690E0
4.218936614E0,3.722983599E-1,1.681926727E0,9.397840500E0,9.554417284E0
4.221449583E0,3.435679376E-1,1.705868721E0,9.388263702E0,9.548168535E0
4.223962708E0,3.100491166E-1,1.720233917E0,9.421782494E0,9.582552924E0
4.226475989E0,2.669534981E-1,1.710657120E0,9.460089684E0,9.617219389E0
4.228989375E0,2.238578647E-1,1.720233917E0,9.517550468E0,9.674351864E0
